timestamp,accel_x,accel_y,accel_z,gyro_x,gyro_y,gyro_z,quat_w,quat_x,quat_y,quat_z,roll,pitch,yaw,att_sp_roll,att_sp_pitch,att_sp_yaw,rate_sp_roll,rate_sp_pitch,rate_sp_yaw,att_cmd_roll,att_cmd_pitch,att_cmd_yaw,rate_cmd_roll,rate_cmd_pitch,rate_cmd_yaw,altitude,climb_rate,flight_state,flight_mode
194286,-2.447,0.044,1.438,29.683,-1.187,-11.167,-0.1053,-0.2084,-0.0382,0.9716,-1.903,24.398,11.959,0.176,-1.408,2.639,0.004,-0.031,0.012,12.312,-60.000,2.639,-0.540,-0.331,0.252,2.06,-1.10,1,0
194333,-0.390,-0.025,0.521,-36.021,8.643,-25.743,-0.0943,-0.0614,-0.0165,0.9935,-1.229,7.184,10.770,0.176,-1.408,-12.845,0.004,-0.031,0.012,6.526,-29.580,0.704,0.476,-0.589,0.879,2.85,0.37,2,0
194358,-0.393,-0.011,0.624,-41.314,-5.394,-22.695,-0.0877,-0.0642,-0.0296,0.9936,-2.756,7.631,9.902,0.176,-1.408,-5.630,0.004,-0.031,0.012,15.395,-31.470,-5.630,0.628,-0.358,0.451,2.86,0.22,2,0
194372,-0.392,-0.009,0.654,-35.613,-11.624,-22.329,-0.0857,-0.0640,-0.0337,0.9937,-3.242,7.645,9.636,0.176,-1.408,0.000,0.004,-0.031,0.012,17.786,-31.602,-2.815,0.677,-0.179,0.506,2.85,0.22,2,0
194387,-0.392,-0.009,0.654,-35.613,-11.624,-22.329,-0.0857,-0.0640,-0.0337,0.9937,-3.242,7.645,9.636,0.176,-1.408,0.000,0.004,-0.031,0.012,17.786,-31.602,-2.815,0.677,-0.179,0.506,2.85,0.22,2,0
194421,-0.393,0.000,0.734,-21.570,-40.103,-19.934,-0.0784,-0.0558,-0.0451,0.9943,-4.672,6.778,8.739,0.088,0.704,2.111,0.004,-0.031,0.012,26.574,-25.756,2.111,0.787,0.274,0.403,2.82,-0.63,2,0
194452,-0.396,0.002,0.752,-10.818,-45.803,-18.781,-0.0751,-0.0486,-0.0477,0.9948,-5.051,5.963,8.367,-1.408,8.842,2.111,0.004,-0.031,0.012,25.511,-5.588,2.111,0.654,0.430,0.530,2.81,-0.23,2,0
194487,-0.412,0.004,0.727,13.687,-35.781,-16.655,-0.0692,-0.0362,-0.0458,0.9959,-4.958,4.495,7.760,0.000,10.073,2.111,0.004,-0.031,0.012,27.642,19.279,2.111,0.061,0.635,0.512,2.79,-0.29,2,0
194507,-0.417,0.008,0.718,19.422,-26.457,-16.274,-0.0671,-0.0335,-0.0429,0.9963,-4.658,4.163,7.540,0.000,9.018,2.111,0.004,-0.031,0.012,26.497,18.562,2.111,-0.098,0.391,0.467,2.77,-1.03,2,0
194538,-0.462,0.017,0.726,29.379,-3.242,-16.030,-0.0630,-0.0331,-0.0362,0.9968,-3.905,4.045,7.093,-0.044,5.674,2.111,0.004,-0.031,0.012,22.761,13.645,2.111,-0.373,-0.033,0.476,2.74,-0.93,2,0
194559,-0.479,0.019,0.717,29.046,13.327,-15.056,-0.0593,-0.0373,-0.0294,0.9971,-3.118,4.469,6.688,0.000,-1.452,2.111,0.004,-0.031,0.012,17.743,-20.344,2.111,-0.487,-0.210,0.448,2.72,-0.93,2,0
194581,-0.547,0.020,0.879,25.402,25.017,-13.734,-0.0564,-0.0436,-0.0243,0.9972,-2.511,5.150,6.357,0.000,-1.408,2.111,0.004,-0.031,0.012,14.912,-22.156,2.111,-0.590,-0.367,0.359,2.69,-1.31,2,0
194599,-0.553,0.013,1.127,20.387,27.573,-12.831,-0.0541,-0.0498,-0.0210,0.9971,-2.104,5.825,6.101,0.000,-1.408,2.111,0.004,-0.031,0.012,12.211,-24.707,2.111,-0.555,-0.473,0.300,2.67,-1.24,2,0
194613,-0.599,0.028,1.283,13.543,26.893,-13.529,-0.0523,-0.0546,-0.0191,0.9970,-1.866,6.361,5.904,0.088,-1.408,2.111,0.004,-0.031,0.012,11.596,-26.048,2.111,-0.384,-0.542,0.327,2.65,-1.24,2,0
194630,-0.603,0.023,1.504,8.799,21.376,-12.816,-0.0503,-0.0595,-0.0177,0.9968,-1.689,6.920,5.681,0.088,-1.408,2.111,0.004,-0.031,0.012,10.127,-28.611,2.111,-0.201,-0.603,0.371,2.62,-1.26,2,0
194646,-0.646,0.046,1.652,2.046,9.082,-12.264,-0.0484,-0.0636,-0.0167,0.9967,-1.565,7.377,5.455,0.088,-1.408,2.111,0.004,-0.031,0.012,9.259,-30.525,2.111,0.019,-0.396,0.326,2.59,-1.89,2,0
194670,-0.645,0.045,1.837,-9.942,-8.127,-11.588,-0.0460,-0.0659,-0.0176,0.9966,-1.683,7.638,5.176,0.176,-1.408,2.111,0.004,-0.031,0.012,10.101,-31.484,2.111,0.230,-0.095,0.294,2.55,-1.80,2,0
194692,-0.699,0.026,2.006,-26.201,-26.107,-12.357,-0.0441,-0.0644,-0.0207,0.9967,-2.057,7.479,4.928,0.088,4.927,2.111,0.004,-0.031,0.012,11.399,-18.477,2.111,0.383,0.123,0.397,2.50,-1.80,2,0
194726,-0.719,0.047,2.120,-28.551,-37.852,-12.115,-0.0425,-0.0603,-0.0251,0.9970,-2.594,7.024,4.717,-7.170,16.848,2.111,0.004,-0.031,0.012,-24.199,34.880,2.111,0.457,0.325,0.470,2.43,-2.33,2,0
194756,-0.697,0.018,2.122,-29.186,-42.465,-11.679,-0.0411,-0.0554,-0.0289,0.9972,-3.061,6.476,4.546,-9.238,22.346,2.111,0.004,-0.031,0.012,-29.881,35.515,2.111,0.290,0.402,0.467,2.41,-2.33,2,0
194771,-0.696,0.033,2.130,-16.869,-37.256,-9.975,-0.0389,-0.0464,-0.0346,0.9976,-3.768,5.463,4.290,-2.463,26.569,2.111,0.004,-0.031,0.012,-17.651,60.000,2.111,0.007,0.568,0.353,2.35,-1.72,2,0
194782,-0.654,0.014,2.138,-11.137,-30.668,-8.698,-0.0383,-0.0444,-0.0354,0.9976,-3.872,5.235,4.223,-1.408,27.449,2.111,0.004,-0.031,0.012,7.181,60.000,2.111,0.028,0.609,0.254,2.34,-1.72,2,0
194802,-0.691,0.027,2.214,2.494,-18.320,-7.372,-0.0373,-0.0423,-0.0352,0.9978,-3.866,4.988,4.119,-0.176,29.384,2.111,0.004,-0.031,0.012,13.421,60.000,2.111,0.166,0.483,0.056,2.31,-1.64,2,0
195253,-0.634,0.070,2.808,22.913,57.708,10.356,-0.0071,-0.1873,0.0067,0.9823,0.978,21.578,1.012,0.000,31.452,2.111,0.004,-0.031,0.012,-4.051,35.488,2.111,-0.731,-0.473,-0.632,1.29,-3.69,2,0
195273,-0.696,0.108,2.878,16.938,38.016,11.627,-0.0085,-0.1942,0.0111,0.9809,1.553,22.379,1.306,0.088,25.337,2.111,0.004,-0.031,0.012,-6.866,22.214,2.111,-0.783,-0.179,-0.705,1.22,-3.51,2,0
195291,-0.633,0.100,2.830,-13.485,-2.003,11.685,-0.0124,-0.1963,0.0131,0.9804,1.897,22.613,1.828,0.000,22.478,2.111,0.004,-0.031,0.012,-9.976,-0.853,2.111,-0.297,0.053,-0.755,1.15,-1.91,2,0
195311,-0.647,0.034,2.836,-39.568,-18.392,8.980,-0.0151,-0.1923,0.0087,0.9812,1.413,22.154,2.036,0.000,23.138,2.111,0.004,-0.031,0.012,-8.350,2.846,2.111,-0.060,0.226,-0.487,1.11,-1.82,2,0
195542,-0.445,-0.035,2.619,15.934,37.906,-11.309,-0.0146,-0.2142,-0.0627,0.9747,-7.340,24.797,0.105,-0.704,13.109,2.111,0.004,-0.031,0.012,38.814,-38.369,2.111,0.137,-0.763,0.628,1.10,-0.06,2,0
195582,-0.426,-0.011,2.750,36.523,-23.371,-4.651,-0.0070,-0.2122,-0.0459,0.9761,-5.461,24.519,359.638,-8.006,15.660,2.111,0.004,-0.031,0.012,-6.311,-33.070,2.111,-0.380,-0.078,-0.068,1.04,-0.97,2,0
195604,-0.413,0.018,2.621,35.186,-39.696,-2.758,-0.0054,-0.2049,-0.0393,0.9780,-4.671,23.656,359.655,-9.018,16.848,2.111,0.004,-0.031,0.012,-19.871,-26.100,2.111,-0.493,0.119,-0.238,1.04,0.04,2,0
195621,-0.409,-0.010,2.650,30.358,-47.756,-0.252,-0.0043,-0.1946,-0.0325,0.9803,-3.853,22.450,359.733,-9.018,17.507,2.111,0.004,-0.031,0.012,-25.976,-18.444,2.111,-0.594,0.295,-0.390,1.04,0.04,2,0
195647,-0.427,-0.001,2.547,16.048,-45.291,-1.029,-0.0035,-0.1817,-0.0268,0.9830,-3.158,20.941,359.826,-8.886,18.123,2.111,0.004,-0.031,0.012,-30.629,-10.217,2.111,-0.675,0.458,-0.400,1.08,0.36,2,0
195668,-0.369,-0.010,2.473,-2.200,-32.611,-1.336,-0.0033,-0.1724,-0.0251,0.9847,-2.946,19.856,359.867,-8.358,17.551,2.111,0.004,-0.031,0.012,-28.587,-8.650,2.111,-0.460,0.474,-0.292,1.15,3.18,2,0
195684,-0.404,-0.005,2.426,-16.596,-20.594,-1.781,-0.0034,-0.1674,-0.0261,0.9855,-3.055,19.272,359.880,-8.314,16.276,2.111,0.004,-0.031,0.012,-28.570,-7.200,2.111,-0.218,0.229,-0.170,1.20,3.03,2,0
195710,-0.393,-0.042,2.460,-44.266,4.644,-3.374,-0.0042,-0.1633,-0.0328,0.9860,-3.837,18.801,359.849,-7.742,14.252,2.111,0.004,-0.031,0.012,-22.180,-13.276,2.111,0.064,-0.055,0.061,1.27,2.88,2,0
195746,-0.366,-0.048,2.404,-61.094,36.099,-4.944,-0.0052,-0.1670,-0.0489,0.9847,-5.747,19.228,359.633,-9.853,12.009,2.111,0.004,-0.031,0.012,-22.748,-25.009,2.111,0.349,-0.343,0.330,1.39,3.55,2,0
195780,-0.379,-0.039,2.386,-59.276,42.153,-5.061,-0.0060,-0.1731,-0.0606,0.9830,-7.155,19.944,359.435,-11.613,8.534,2.111,0.004,-0.031,0.012,-23.618,-35.925,2.111,0.489,-0.485,0.359,1.47,3.38,2,0
195796,-0.364,-0.059,2.460,-56.183,39.490,-4.395,-0.0064,-0.1780,-0.0689,0.9816,-8.157,20.505,359.274,-12.933,7.962,2.111,0.004,-0.031,0.012,-22.554,-43.047,2.111,0.574,-0.570,0.335,1.50,3.01,2,0
195827,-0.408,-0.074,2.536,-24.209,8.602,0.194,-0.0077,-0.1828,-0.0808,0.9798,-9.588,21.068,359.114,-13.021,6.862,2.111,0.004,-0.031,0.012,-18.824,-47.580,2.111,0.146,-0.324,-0.020,1.54,1.07,2,0
196112,-0.409,-0.053,2.515,-39.906,30.970,3.645,0.0023,-0.1611,-0.0944,0.9824,-11.321,18.433,357.892,-7.610,6.510,1.408,0.004,-0.031,0.012,19.923,-41.437,1.408,0.411,-0.366,-0.166,2.30,1.50,2,0
196132,-0.413,-0.072,2.514,-29.529,18.608,6.828,0.0013,-0.1629,-0.0970,0.9819,-11.626,18.637,357.933,-8.710,5.235,1.760,0.004,-0.031,0.012,21.504,-44.587,1.408,0.250,-0.210,-0.261,2.30,-0.02,2,0
196162,-0.371,-0.092,2.542,0.697,-17.563,9.944,-0.0022,-0.1605,-0.0986,0.9821,-11.734,18.402,358.345,-9.282,6.026,1.760,0.004,-0.031,0.012,14.099,-43.760,1.760,-0.113,0.142,-0.476,2.30,-0.02,2,0
196180,-0.371,-0.092,2.542,0.697,-17.563,9.944,-0.0022,-0.1605,-0.0986,0.9821,-11.734,18.402,358.345,-9.282,6.026,1.760,0.004,-0.031,0.012,14.099,-43.760,1.760,-0.113,0.142,-0.476,2.30,-0.02,2,0
196193,-0.342,-0.113,2.508,21.260,-28.993,8.668,-0.0047,-0.1528,-0.0935,0.9838,-11.041,17.549,358.842,-13.504,7.698,2.111,0.004,-0.031,0.012,-10.472,-37.103,2.111,-0.345,0.366,-0.472,2.37,2.27,2,0
196210,-0.318,-0.120,2.321,19.921,-26.552,4.073,-0.0057,-0.1472,-0.0890,0.9851,-10.457,16.919,359.100,-14.340,7.786,2.111,0.004,-0.031,0.012,-20.881,-32.104,2.111,-0.465,0.482,-0.204,2.41,2.15,2,0
196247,-0.230,-0.148,1.688,1.581,5.765,-13.144,-0.0037,-0.1383,-0.0827,0.9869,-9.708,15.874,359.072,-16.628,7.918,2.111,0.004,-0.031,0.012,-37.808,-27.782,2.111,-0.657,0.045,0.228,2.54,3.20,2,0
196263,-0.218,-0.157,1.576,-7.777,20.996,-18.547,-0.0013,-0.1387,-0.0828,0.9869,-9.767,15.903,358.789,-17.683,7.918,2.111,0.004,-0.031,0.012,-37.767,-27.712,2.111,-0.582,-0.111,0.343,2.59,3.04,2,0
196283,-0.189,-0.156,1.505,-20.381,37.628,-23.476,0.0024,-0.1420,-0.0851,0.9862,-10.112,16.239,358.269,-17.023,7.962,2.111,0.004,-0.031,0.012,-42.342,-28.414,2.111,-0.389,-0.274,0.463,2.64,2.89,2,0
196307,-0.178,-0.144,1.514,-42.680,50.029,-26.891,0.0077,-0.1488,-0.0916,0.9846,-11.012,16.951,357.461,-15.220,7.962,2.111,0.004,-0.031,0.012,-30.468,-31.113,2.111,-0.090,-0.430,0.579,2.70,2.72,2,0
196326,-0.178,-0.144,1.534,-46.196,51.202,-26.964,0.0090,-0.1508,-0.0939,0.9841,-11.316,17.162,357.243,-15.220,7.962,2.111,0.004,-0.031,0.012,-30.468,-31.113,2.111,-0.026,-0.464,0.604,2.72,2.72,2,0
196343,-0.168,-0.117,1.641,-59.250,43.770,-24.940,0.0148,-0.1606,-0.1073,0.9811,-13.098,18.172,356.171,-12.449,9.194,2.111,0.004,-0.031,0.012,-1.623,-30.499,2.111,0.243,-0.571,0.698,2.78,2.18,2,0
196902,0.050,-0.055,1.144,48.279,39.577,-8.931,0.0694,-0.1581,-0.0901,0.9808,-12.013,17.317,350.075,0.352,10.029,2.111,0.004,-0.031,0.012,68.201,-24.960,2.111,-0.048,-0.682,-0.329,4.17,3.51,2,0
197158,0.062,-0.032,0.797,55.496,43.481,-13.709,0.1326,-0.1281,-0.0238,0.9826,-4.778,14.211,344.028,0.088,13.416,2.111,0.004,-0.031,0.012,26.365,-1.086,2.111,-0.320,-0.475,-0.008,5.07,2.97,2,0
197176,0.064,-0.026,0.827,54.409,43.609,-12.393,0.1337,-0.1294,-0.0208,0.9823,-4.465,14.399,343.929,0.088,13.416,2.111,0.004,-0.031,0.012,26.365,-1.086,2.111,-0.360,-0.506,-0.067,5.08,2.97,2,0
197193,0.046,-0.013,1.027,46.817,32.441,-9.281,0.1386,-0.1347,-0.0066,0.9811,-2.988,15.219,343.523,0.000,12.713,2.111,0.004,-0.031,0.012,18.204,-6.121,2.111,-0.527,-0.570,-0.311,5.16,2.83,2,0
197218,0.037,-0.007,1.159,30.677,12.866,-6.958,0.1413,-0.1358,0.0016,0.9806,-2.092,15.471,343.312,0.000,12.581,2.111,0.004,-0.031,0.012,11.337,-10.088,2.111,-0.301,-0.208,-0.470,5.21,1.73,2,0
197237,0.034,-0.000,1.228,12.197,-4.150,-5.653,0.1429,-0.1340,0.0050,0.9806,-1.698,15.321,343.190,0.000,12.493,2.111,0.004,-0.031,0.012,9.335,-9.674,2.111,-0.085,-0.007,-0.552,5.24,1.65,2,0
197253,0.032,0.000,1.245,0.719,-16.578,-4.864,0.1437,-0.1308,0.0054,0.9809,-1.608,14.960,343.117,0.000,12.493,2.111,0.004,-0.031,0.012,8.842,-9.328,2.111,0.077,0.143,-0.598,5.26,1.65,2,0
197293,0.028,-0.018,1.209,-24.623,-27.915,-5.986,0.1447,-0.1204,-0.0008,0.9821,-2.146,13.669,342.974,-0.044,11.789,2.111,0.004,-0.031,0.012,10.917,-7.106,2.111,0.345,0.392,-0.401,5.35,2.37,2,0
197321,0.030,-0.037,1.136,-29.138,-23.792,-7.507,0.1456,-0.1117,-0.0093,0.9830,-2.987,12.523,342.821,-1.056,11.305,2.111,0.004,-0.031,0.012,9.908,-4.748,2.111,0.526,0.547,-0.027,5.41,2.18,2,0
197341,0.027,-0.049,1.105,-29.210,-15.721,-9.688,0.1463,-0.1085,-0.0135,0.9832,-3.415,12.089,342.715,-1.100,11.305,2.111,0.004,-0.031,0.012,11.557,-3.554,2.111,0.613,0.270,0.161,5.46,2.39,2,0
197351,0.030,-0.059,1.082,-19.739,-3.547,-12.019,0.1476,-0.1059,-0.0178,0.9832,-3.884,11.713,342.523,-1.408,11.305,2.111,0.004,-0.031,0.012,12.807,-1.778,2.111,0.626,0.125,0.256,5.49,2.39,2,0
197391,0.051,-0.066,1.027,21.602,23.557,-14.450,0.1525,-0.1058,-0.0182,0.9825,-3.984,11.670,341.952,-3.563,11.437,2.111,0.004,-0.031,0.012,5.728,-0.602,2.111,0.098,-0.249,0.504,5.57,2.16,2,0
197419,0.060,-0.062,1.062,39.343,35.308,-16.501,0.1576,-0.1093,-0.0093,0.9814,-3.096,12.219,341.418,-4.619,11.481,2.111,0.004,-0.031,0.012,-7.190,-2.102,2.111,-0.173,-0.434,0.626,5.65,2.53,2,0
197903,0.020,-0.073,1.545,-36.506,-4.977,-15.185,0.1613,-0.1041,-0.0279,0.9810,-5.163,11.262,340.815,-20.191,14.692,2.287,0.004,-0.031,0.012,-80.413,10.958,2.111,-0.158,0.189,0.727,7.09,2.94,2,0
197930,0.022,-0.073,1.486,-24.250,-15.150,-15.647,0.1645,-0.0994,-0.0363,0.9807,-6.066,10.540,340.391,-18.607,13.680,2.111,0.004,-0.031,0.012,-68.792,10.195,2.111,-0.375,0.401,0.798,7.18,3.33,2,0
198148,0.008,-0.046,1.414,-27.410,43.451,8.169,0.1771,-0.1324,-0.0859,0.9715,-12.677,13.106,337.872,-21.202,14.868,2.111,0.004,-0.031,0.012,-43.825,6.741,2.111,0.146,-0.547,-0.633,7.88,2.25,2,0
198187,-0.015,-0.058,1.551,8.979,17.519,11.933,0.1744,-0.1399,-0.0849,0.9710,-12.728,14.013,338.069,-18.255,13.065,-0.704,0.004,-0.031,0.012,-30.056,-3.232,1.408,-0.204,-0.075,-0.745,7.96,2.36,2,0
198218,-0.021,-0.078,1.581,29.350,-11.780,8.939,0.1723,-0.1366,-0.0767,0.9725,-11.662,13.837,338.490,-16.672,12.361,-5.630,0.004,-0.031,0.012,-27.957,-3.922,-5.630,-0.435,0.237,-0.819,8.04,2.25,2,0
198242,-0.014,-0.090,1.523,27.957,-20.166,3.804,0.1718,-0.1311,-0.0714,0.9738,-10.765,13.227,338.746,-15.484,11.789,-5.630,0.004,-0.031,0.012,-25.727,-5.018,-5.630,-0.557,0.402,-0.566,8.11,3.04,2,0
198262,-0.002,-0.101,1.383,16.576,-21.448,-4.908,0.1724,-0.1224,-0.0664,0.9751,-10.123,12.459,338.837,-14.428,11.217,-2.111,0.004,-0.031,0.012,-22.791,-5.006,-4.399,-0.433,0.530,-0.229,8.18,2.89,2,0
198289,0.007,-0.109,1.268,5.844,-13.410,-11.349,0.1742,-0.1165,-0.0645,0.9757,-9.794,11.820,338.741,-14.516,11.877,1.232,0.004,-0.031,0.012,-25.339,-0.549,1.232,-0.157,0.540,0.016,8.24,2.75,2,0
198309,0.019,-0.113,1.149,-11.422,2.727,-19.251,0.1777,-0.1128,-0.0655,0.9754,-9.864,11.350,338.369,-14.428,12.009,1.232,0.004,-0.031,0.012,-25.204,2.137,1.232,0.111,0.185,0.243,8.33,2.76,2,0
198342,0.031,-0.116,1.077,-19.532,16.775,-23.596,0.1809,-0.1129,-0.0679,0.9746,-10.175,11.277,337.957,-13.372,12.009,-1.408,0.004,-0.031,0.012,-17.721,2.565,-1.408,0.258,-0.012,0.369,8.39,3.85,2,0
198363,0.044,-0.117,1.013,-21.312,37.626,-29.682,0.1895,-0.1187,-0.0734,0.9719,-11.051,11.708,336.800,-12.801,11.789,-2.991,0.004,-0.031,0.012,-10.395,0.997,-2.991,0.485,-0.313,0.562,8.52,3.51,2,0
198392,0.040,-0.113,1.059,-11.778,43.785,-31.798,0.1973,-0.1262,-0.0760,0.9692,-11.647,12.391,335.714,-12.933,11.701,-0.704,0.004,-0.031,0.012,-7.353,-1.864,-0.704,0.436,-0.483,0.670,8.62,3.53,2,0
198418,0.034,-0.111,1.116,-3.628,41.544,-32.653,0.2039,-0.1320,-0.0763,0.9670,-11.924,12.958,334.822,-13.109,11.701,1.232,0.004,-0.031,0.012,-6.425,-3.694,1.232,0.150,-0.586,0.735,8.69,3.35,2,0
198431,0.030,-0.103,1.156,6.399,34.189,-33.046,0.2089,-0.1352,-0.0752,0.9656,-11.965,13.277,334.184,-13.504,11.701,1.408,0.004,-0.031,0.012,-6.207,-5.262,1.232,-0.022,-0.527,0.775,8.74,3.17,2,0
198711,0.056,-0.031,0.835,-24.004,38.456,-10.705,0.2711,-0.1135,-0.0717,0.9531,-11.618,10.227,327.206,-20.059,10.073,1.760,0.004,-0.031,0.012,-53.999,6.167,1.760,-0.406,-0.458,-0.325,9.71,3.00,2,0
198719,0.050,-0.030,0.874,-22.971,39.131,-10.094,0.2726,-0.1181,-0.0730,0.9521,-11.940,10.664,326.931,-19.003,9.897,1.760,0.004,-0.031,0.012,-39.250,-2.139,1.760,-0.251,-0.539,-0.404,9.76,2.86,2,0
198749,0.040,-0.027,0.983,-30.328,29.481,-9.361,0.2750,-0.1258,-0.0761,0.9501,-12.600,11.375,326.457,-18.783,9.589,2.111,0.004,-0.031,0.012,-34.534,-5.965,2.111,0.076,-0.615,-0.327,9.85,2.81,2,0
198772,0.039,-0.034,1.045,-37.017,17.969,-9.235,0.2763,-0.1299,-0.0805,0.9488,-13.256,11.652,326.171,-18.299,9.589,2.111,0.004,-0.031,0.012,-28.739,-7.022,2.111,0.275,-0.280,-0.169,9.93,3.52,2,0
198793,0.039,-0.040,1.074,-43.790,4.891,-10.400,0.2773,-0.1318,-0.0862,0.9478,-13.977,11.653,325.953,-17.815,9.677,2.111,0.004,-0.031,0.012,-24.993,-7.291,2.111,0.395,-0.067,0.015,9.99,3.35,2,0
198823,0.048,-0.054,1.049,-43.865,-13.459,-13.460,0.2788,-0.1307,-0.0978,0.9464,-15.242,11.118,325.675,-17.903,9.897,2.111,0.004,-0.031,0.012,-16.311,-4.919,2.111,0.562,0.228,0.287,10.09,3.20,2,0
198853,0.066,-0.068,0.949,-27.160,-19.171,-16.401,0.2811,-0.1261,-0.1076,0.9452,-16.187,10.244,325.415,-18.431,9.897,2.111,0.004,-0.031,0.012,-11.236,-2.081,2.111,0.486,0.430,0.473,10.18,3.05,2,0
198870,0.077,-0.074,0.873,-9.746,-17.381,-17.098,0.2829,-0.1226,-0.1104,0.9448,-16.387,9.746,325.256,-18.431,9.897,2.111,0.004,-0.031,0.012,-11.373,0.107,2.111,0.264,0.515,0.552,10.22,2.90,2,0
198887,0.073,-0.084,0.821,12.702,-12.838,-16.759,0.2851,-0.1189,-0.1105,0.9447,-16.231,9.250,325.057,-18.519,9.941,2.111,0.004,-0.031,0.012,-12.385,2.238,2.111,0.054,0.508,0.626,10.30,2.93,2,0
198922,0.071,-0.098,0.757,52.305,-1.197,-16.806,0.2918,-0.1094,-0.0998,0.9449,-14.787,8.539,324.567,-20.059,10.029,2.111,0.004,-0.031,0.012,-27.281,4.875,2.111,-0.267,0.064,0.726,10.45,4.15,2,0
198950,0.080,-0.098,0.752,65.145,7.484,-19.312,0.2975,-0.1031,-0.0867,0.9452,-13.155,8.242,324.105,-21.114,10.249,2.111,0.004,-0.031,0.012,-42.408,6.883,2.111,-0.437,-0.182,0.789,10.54,3.90,2,0
199467,0.029,-0.076,0.851,-18.804,-6.373,-35.012,0.4168,-0.1000,-0.0712,0.9007,-12.303,6.934,309.590,-3.431,5.323,2.111,0.004,-0.031,0.012,31.021,5.886,2.111,0.083,0.508,0.988,11.66,2.37,2,0
199711,0.084,-0.056,0.534,17.371,-14.581,-25.631,0.4871,-0.0576,-0.0613,0.8693,-9.365,2.317,301.285,-2.815,3.343,2.111,0.004,-0.031,0.012,39.924,2.963,2.111,-0.096,0.544,0.575,12.20,2.11,2,0
199742,0.080,-0.065,0.547,9.931,-12.638,-25.746,0.4915,-0.0520,-0.0611,0.8672,-9.048,1.727,300.777,-2.331,2.815,2.111,0.004,-0.031,0.012,37.359,3.976,2.111,0.157,0.650,0.672,12.22,0.77,2,0
199764,0.075,-0.070,0.565,7.785,-4.605,-25.613,0.4976,-0.0461,-0.0614,0.8640,-8.742,1.058,300.041,-1.804,7.962,2.111,0.004,-0.031,0.012,29.433,17.393,2.111,0.190,0.624,0.753,12.24,0.73,2,0
199787,0.067,-0.079,0.561,5.433,6.599,-25.702,0.5025,-0.0429,-0.0612,0.8614,-8.539,0.715,299.434,-1.408,9.457,2.111,0.004,-0.031,0.012,39.775,30.417,2.111,0.341,0.682,0.802,12.25,0.69,2,0
199811,0.069,-0.082,0.548,6.487,16.879,-26.161,0.5075,-0.0418,-0.0604,0.8585,-8.400,0.601,298.774,-1.408,10.601,2.111,0.004,-0.031,0.012,39.138,31.171,2.111,0.483,0.527,0.845,12.27,0.53,2,0
199838,0.068,-0.086,0.571,13.130,21.930,-26.559,0.5114,-0.0420,-0.0586,0.8563,-8.244,0.690,298.254,-1.232,11.305,2.111,0.004,-0.031,0.012,39.264,37.097,2.111,0.456,0.304,0.871,12.28,0.50,2,0
199873,0.045,-0.091,0.709,36.225,35.665,-27.179,0.5202,-0.0430,-0.0490,0.8515,-7.369,1.274,297.073,-3.167,15.440,2.111,0.004,-0.031,0.012,29.319,44.493,2.111,-0.008,-0.072,0.912,12.28,0.03,2,0
199918,-0.008,-0.090,0.942,59.806,38.140,-27.507,0.5307,-0.0411,-0.0275,0.8461,-5.176,2.318,295.704,-6.950,20.587,2.111,0.004,-0.031,0.012,-5.678,60.000,2.111,-0.364,0.188,0.943,12.26,-0.08,2,0
199942,-0.042,-0.083,1.083,51.797,28.295,-32.150,0.5382,-0.0385,-0.0128,0.8418,-3.617,2.920,294.724,-6.950,22.434,2.111,0.004,-0.031,0.012,-17.319,60.000,2.111,-0.530,0.401,0.958,12.23,-1.00,2,0
199961,-0.053,-0.078,1.141,42.628,19.147,-34.631,0.5430,-0.0376,-0.0067,0.8389,-2.989,3.200,294.086,-6.950,23.710,2.111,0.004,-0.031,0.012,-20.977,60.000,2.111,-0.608,0.500,0.965,12.21,-0.95,2,0
199978,-0.065,-0.076,1.173,35.596,15.509,-36.273,0.5469,-0.0370,-0.0031,0.8364,-2.623,3.348,293.567,-6.950,25.161,2.111,0.004,-0.031,0.012,-22.541,60.000,2.111,-0.653,0.557,0.969,12.20,-0.95,2,0
200270,-0.063,-0.056,1.247,24.092,10.246,-25.976,0.6204,-0.0591,0.0089,0.7820,-3.425,5.935,282.969,-5.411,24.457,2.111,0.004,-0.031,0.012,-9.217,60.000,2.111,-0.244,0.672,0.409,12.02,0.12,2,0
200292,-0.052,-0.060,1.231,26.509,11.058,-27.153,0.6259,-0.0550,0.0136,0.7778,-2.748,5.888,282.214,-5.543,23.754,2.111,0.004,-0.031,0.012,-14.140,60.000,2.111,-0.430,0.742,0.554,12.02,0.11,2,0
200310,-0.057,-0.062,1.228,26.466,15.823,-27.594,0.6283,-0.0535,0.0157,0.7760,-2.475,5.901,281.875,-6.026,23.710,2.111,0.004,-0.031,0.012,-15.909,60.000,2.111,-0.525,0.646,0.628,12.00,-0.01,2,0
200327,-0.051,-0.062,1.216,25.542,18.807,-28.743,0.6328,-0.0517,0.0197,0.7723,-2.018,6.015,281.231,-6.598,23.050,2.111,0.004,-0.031,0.012,-20.649,60.000,2.111,-0.596,0.449,0.684,11.99,-0.98,2,0
200356,-0.045,-0.062,1.200,20.692,23.964,-29.951,0.6383,-0.0511,0.0246,0.7677,-1.583,6.301,280.436,-7.610,21.774,2.111,0.004,-0.031,0.012,-29.394,56.699,2.111,-0.695,0.111,0.762,11.96,-0.93,2,0
200388,-0.044,-0.057,1.200,-0.939,28.320,-31.961,0.6463,-0.0541,0.0295,0.7606,-1.443,6.921,279.206,-8.886,18.959,2.111,0.004,-0.031,0.012,-40.744,42.188,2.111,-0.744,-0.228,0.834,11.93,-0.88,2,0
200419,-0.048,-0.060,1.214,-23.047,30.103,-32.665,0.6524,-0.0609,0.0290,0.7549,-2.061,7.459,278.200,-10.073,16.848,2.111,0.004,-0.031,0.012,-44.063,35.292,2.111,-0.288,-0.430,0.878,11.91,-0.77,2,0
200436,-0.058,-0.060,1.223,-32.285,30.938,-32.884,0.6559,-0.0664,0.0272,0.7514,-2.676,7.791,277.577,-10.557,16.848,2.111,0.004,-0.031,0.012,-43.459,31.688,2.111,-0.074,-0.524,0.898,11.90,-0.55,2,0
200470,-0.052,-0.063,1.198,-42.733,22.866,-30.915,0.6621,-0.0776,0.0211,0.7451,-4.131,8.258,276.447,-10.777,19.135,2.111,0.004,-0.031,0.012,-37.169,36.156,2.111,0.238,-0.236,0.899,11.88,-0.52,2,0
200494,-0.046,-0.064,1.175,-48.863,18.051,-30.659,0.6645,-0.0821,0.0176,0.7425,-4.810,8.355,275.994,-11.173,20.367,2.111,0.004,-0.031,0.012,-34.586,37.754,2.111,0.339,-0.073,0.912,11.87,-0.54,2,0
201028,-0.018,-0.117,1.068,-10.375,35.838,-25.252,0.7660,-0.1427,-0.0143,0.6267,-13.851,9.031,257.479,-14.208,28.196,2.111,0.004,-0.031,0.012,-2.078,60.000,2.111,0.084,-0.138,0.613,11.42,-0.96,2,0
201281,-0.024,-0.131,1.048,4.943,5.573,-41.279,0.8203,-0.0948,0.0279,0.5633,-7.211,8.778,248.400,-13.504,25.337,2.111,0.004,-0.031,0.012,-33.727,57.634,2.111,-0.462,0.529,0.966,11.17,-0.85,2,0
201307,-0.025,-0.130,1.033,-12.300,20.184,-41.724,0.8256,-0.0960,0.0269,0.5553,-7.479,8.691,247.277,-13.504,24.765,2.111,0.004,-0.031,0.012,-32.535,56.081,2.111,-0.125,0.176,0.974,11.15,-0.81,2,0
201332,-0.003,-0.126,1.028,-21.968,32.067,-41.775,0.8306,-0.1014,0.0267,0.5469,-8.102,8.932,246.095,-13.460,24.589,2.111,0.004,-0.031,0.012,-29.905,55.289,2.111,0.135,-0.096,0.980,11.11,-0.87,2,0
201366,0.000,-0.125,1.008,-25.018,45.148,-39.873,0.8364,-0.1122,0.0288,0.5357,-9.153,9.690,244.497,-13.372,24.589,2.111,0.004,-0.031,0.012,-22.913,52.175,2.111,0.387,-0.359,0.986,11.05,-1.61,2,0
201382,-0.004,-0.127,1.006,-20.044,47.252,-37.960,0.8386,-0.1167,0.0306,0.5312,-9.542,10.094,243.853,-13.372,24.589,2.111,0.004,-0.031,0.012,-21.328,51.186,2.111,0.356,-0.443,0.931,11.03,-1.54,2,0
201412,-0.005,-0.128,1.018,-10.895,45.220,-36.256,0.8426,-0.1237,0.0350,0.5230,-10.081,10.857,242.693,-13.284,24.589,2.111,0.004,-0.031,0.012,-17.727,48.111,2.111,0.046,-0.553,0.808,10.99,-1.60,2,0
201444,-0.014,-0.123,1.050,3.835,37.280,-33.826,0.8481,-0.1289,0.0420,0.5122,-10.331,11.723,241.189,-12.669,24.413,2.111,0.004,-0.031,0.012,-15.057,44.868,2.111,-0.273,-0.129,0.755,10.94,-1.45,2,0
201466,-0.032,-0.124,1.085,9.866,30.294,-33.245,0.8510,-0.1295,0.0451,0.5070,-10.272,12.035,240.411,-12.669,24.238,2.111,0.004,-0.031,0.012,-12.517,42.957,2.111,-0.406,0.078,0.795,10.91,-1.43,2,0
201490,-0.049,-0.126,1.156,18.221,14.351,-31.891,0.8559,-0.1272,0.0490,0.4989,-9.942,12.171,239.416,-12.669,24.238,2.111,0.004,-0.031,0.012,-14.024,42.099,2.111,-0.552,0.305,0.811,10.86,-1.80,2,0
201509,-0.053,-0.123,1.195,17.800,5.525,-32.514,0.8589,-0.1245,0.0500,0.4943,-9.675,12.061,238.814,-13.152,24.413,2.111,0.004,-0.031,0.012,-18.169,42.663,2.111,-0.627,0.420,0.842,10.83,-1.72,2,0
201542,-0.048,-0.118,1.225,9.033,-0.378,-33.416,0.8643,-0.1193,0.0492,0.4862,-9.303,11.603,237.771,-13.109,24.457,2.111,0.004,-0.031,0.012,-20.248,44.515,2.111,-0.730,0.581,0.886,10.77,-1.84,2,0
201818,-0.096,-0.141,1.356,29.500,41.687,-20.859,0.8901,-0.1596,0.0904,0.4173,-12.606,17.106,228.336,-10.909,25.953,2.111,0.004,-0.031,0.012,8.827,30.880,2.111,-0.155,-0.067,0.168,10.32,-2.11,2,0
201846,-0.102,-0.147,1.368,39.971,0.719,-27.679,0.8979,-0.1443,0.1013,0.4034,-10.705,17.361,226.751,-7.082,25.337,2.111,0.004,-0.031,0.012,18.859,27.833,2.111,-0.378,0.418,0.530,10.18,-2.33,2,0
201883,-0.100,-0.149,1.302,34.539,-6.488,-34.040,0.9045,-0.1307,0.1009,0.3932,-9.434,16.574,225.619,-2.463,24.809,2.111,0.004,-0.031,0.012,29.917,30.242,2.111,-0.260,0.595,0.673,10.13,-1.58,2,0
201908,-0.082,-0.146,1.242,19.516,1.546,-38.264,0.9090,-0.1242,0.0995,0.3853,-8.931,16.061,224.675,-1.979,23.710,2.111,0.004,-0.031,0.012,36.775,26.443,2.111,0.031,0.467,0.749,10.07,-1.60,2,0
201931,-0.076,-0.148,1.205,4.226,13.821,-39.612,0.9123,-0.1226,0.0990,0.3781,-8.902,15.863,223.779,-1.979,23.534,2.111,0.004,-0.031,0.012,36.278,26.648,2.111,0.224,0.175,0.799,10.02,-2.36,2,0
201949,-0.069,-0.146,1.176,-1.934,24.786,-42.399,0.9147,-0.1235,0.0996,0.3718,-9.081,15.902,222.968,-1.979,23.402,2.111,0.004,-0.031,0.012,37.112,26.234,2.111,0.353,-0.020,0.832,9.99,-2.24,2,0
201982,-0.053,-0.145,1.157,-3.058,37.620,-42.212,0.9175,-0.1264,0.1024,0.3628,-9.445,16.241,221.802,-0.528,22.302,2.111,0.004,-0.031,0.012,41.619,25.462,2.111,0.492,-0.231,0.868,9.94,-2.13,2,0
202001,-0.056,-0.146,1.152,1.700,46.522,-41.498,0.9197,-0.1290,0.1067,0.3552,-9.702,16.736,220.806,-0.044,22.126,2.111,0.004,-0.031,0.012,50.436,19.531,2.111,0.585,-0.372,0.892,9.90,-2.01,2,0
202020,-0.055,-0.143,1.174,13.509,49.777,-40.529,0.9223,-0.1313,0.1143,0.3450,-9.868,17.541,219.496,0.000,21.994,2.111,0.004,-0.031,0.012,51.897,15.945,2.111,0.541,-0.527,0.919,9.85,-1.70,2,0
202047,-0.057,-0.140,1.253,26.511,44.276,-39.314,0.9254,-0.1304,0.1232,0.3339,-9.643,18.368,218.121,0.000,22.126,2.111,0.004,-0.031,0.012,50.689,13.272,2.111,0.185,-0.617,0.935,9.81,-1.66,2,0
202581,0.065,-0.065,0.918,41.465,-3.729,-36.995,0.9849,-0.0167,0.0946,0.1441,-0.334,11.017,196.621,11.657,19.135,2.111,0.004,-0.031,0.012,58.796,29.750,2.111,-0.266,0.305,0.752,8.72,-1.94,2,0
202812,-0.002,0.006,1.585,27.251,-12.283,-8.356,0.9880,-0.0174,0.1261,0.0870,-0.739,14.611,189.971,-0.352,29.736,2.111,0.004,-0.031,0.012,3.738,37.599,2.111,0.126,0.140,-0.366,8.08,-3.44,2,0
202842,0.024,-0.002,1.460,42.233,-30.075,-5.481,0.9898,-0.0038,0.1153,0.0832,0.689,13.236,189.694,-1.232,34.619,2.111,0.004,-0.031,0.012,-8.621,60.000,2.111,-0.248,0.426,-0.553,7.95,-3.40,2,0
202866,0.039,-0.012,1.314,44.376,-28.391,-5.250,0.9909,0.0055,0.1076,0.0812,1.664,12.261,189.547,-1.232,34.619,2.111,0.004,-0.031,0.012,-14.934,60.000,2.111,-0.410,0.550,-0.581,7.87,-3.24,2,0
202886,0.047,-0.022,1.186,45.214,-21.833,-5.998,0.9915,0.0133,0.1019,0.0794,2.495,11.539,189.408,-1.232,34.619,2.111,0.004,-0.031,0.012,-18.850,60.000,2.111,-0.518,0.632,-0.401,7.82,-3.06,2,0
202901,0.051,-0.027,1.104,42.727,-13.647,-7.195,0.9919,0.0185,0.0990,0.0780,3.045,11.151,189.295,-1.232,34.135,2.111,0.004,-0.031,0.012,-21.398,60.000,2.111,-0.582,0.488,-0.231,7.78,-2.72,2,0
202929,0.057,-0.034,1.006,36.119,0.052,-10.902,0.9922,0.0254,0.0963,0.0755,3.787,10.787,189.063,-0.704,33.475,2.287,0.004,-0.031,0.012,-24.781,60.000,2.287,-0.665,0.192,0.014,7.72,-2.59,2,0
202946,0.059,-0.039,0.963,29.746,11.651,-12.741,0.9922,0.0292,0.0960,0.0734,4.202,10.738,188.860,-0.704,33.475,2.111,0.004,-0.031,0.012,-25.070,60.000,2.111,-0.721,-0.007,0.178,7.68,-2.42,2,0
202961,0.063,-0.038,0.946,24.216,20.797,-14.501,0.9922,0.0313,0.0970,0.0718,4.437,10.831,188.696,-0.616,32.947,2.287,0.004,-0.031,0.012,-25.747,60.000,2.111,-0.731,-0.120,0.272,7.66,-2.42,2,0
202982,0.063,-0.037,0.984,-5.197,37.207,-16.868,0.9919,0.0323,0.1024,0.0676,4.557,11.466,188.254,-0.616,31.716,2.111,0.004,-0.031,0.012,-27.287,60.000,2.111,-0.365,-0.337,0.451,7.61,-1.80,2,0
202999,0.065,-0.036,1.036,-28.581,42.572,-19.717,0.9917,0.0281,0.1070,0.0652,4.081,12.033,187.957,-1.056,31.672,2.111,0.004,-0.031,0.012,-27.503,60.000,2.111,-0.138,-0.447,0.542,7.58,-1.77,2,0
203019,0.058,-0.032,1.126,-51.135,41.313,-21.671,0.9915,0.0196,0.1120,0.0626,3.102,12.693,187.567,-1.056,31.144,2.111,0.004,-0.031,0.012,-22.199,60.000,2.111,0.070,-0.518,0.626,7.53,-2.19,2,0
203047,0.055,-0.034,1.201,-63.566,30.402,-21.143,0.9913,0.0033,0.1173,0.0592,1.200,13.429,186.973,-0.352,30.440,2.111,0.004,-0.031,0.012,-8.804,59.512,2.111,0.299,-0.148,0.718,7.47,-2.08,2,0
203070,0.046,-0.031,1.231,-53.516,11.713,-16.509,0.9913,-0.0096,0.1185,0.0566,-0.327,13.652,186.500,-0.264,29.384,2.111,0.004,-0.031,0.012,-1.529,54.956,2.111,0.450,0.100,0.546,7.41,-2.08,2,0
203092,0.046,-0.027,1.224,-43.369,-1.273,-12.036,0.9915,-0.0182,0.1168,0.0552,-1.364,13.509,186.209,-0.176,29.340,2.111,0.004,-0.031,0.012,4.710,55.017,2.111,0.551,0.264,0.263,7.36,-2.81,2,0
203507,0.058,-0.034,1.228,-27.951,34.599,-8.395,0.9918,-0.0407,0.1196,0.0164,-4.537,13.808,181.343,0.176,34.619,2.111,0.004,-0.031,0.012,23.029,60.000,2.111,0.734,0.002,-0.039,6.36,-2.47,2,0
203523,0.060,-0.035,1.220,-20.592,45.777,-5.119,0.9911,-0.0444,0.1242,0.0155,-4.977,14.335,181.168,0.176,34.619,2.111,0.004,-0.031,0.012,25.691,60.000,2.111,0.728,-0.164,-0.199,6.31,-2.39,2,0
203532,0.059,-0.037,1.240,-13.749,49.860,-4.571,0.9906,-0.0460,0.1281,0.0150,-5.178,14.778,181.064,0.176,34.619,2.111,0.004,-0.031,0.012,26.702,60.000,2.111,0.559,-0.260,-0.290,6.29,-2.39,2,0
203558,0.058,-0.045,1.290,5.209,53.237,-1.784,0.9893,-0.0467,0.1373,0.0138,-5.287,15.836,180.865,0.176,34.619,2.111,0.004,-0.031,0.012,27.789,60.000,2.111,0.199,-0.431,-0.454,6.22,-2.47,2,0
203579,0.055,-0.052,1.352,26.706,51.113,-0.525,0.9885,-0.0436,0.1445,0.0128,-4.935,16.668,180.763,0.000,31.935,2.111,0.004,-0.031,0.012,26.102,57.042,2.111,-0.020,-0.496,-0.554,6.17,-2.40,2,0
203599,0.051,-0.057,1.398,38.734,46.461,-0.524,0.9880,-0.0394,0.1491,0.0119,-4.296,17.334,180.686,0.000,30.792,2.111,0.004,-0.031,0.012,22.396,47.197,2.111,-0.199,-0.448,-0.551,6.12,-2.73,2,0
203826,0.070,-0.067,1.049,-3.719,14.349,-40.723,0.9910,-0.0019,0.1272,-0.0415,-0.849,14.598,175.096,-0.176,24.413,2.111,0.004,-0.031,0.012,3.378,34.282,2.111,0.438,0.076,0.805,5.75,-0.78,2,0
203853,0.069,-0.059,1.072,11.158,33.073,-38.044,0.9899,-0.0026,0.1314,-0.0533,-1.135,15.065,173.684,-1.408,19.531,2.111,0.004,-0.031,0.012,-1.493,21.702,2.111,0.048,-0.237,0.859,5.73,-0.72,2,0
203876,0.063,-0.050,1.123,17.305,40.790,-34.502,0.9889,-0.0008,0.1359,-0.0599,-1.063,15.587,172.917,-1.540,17.199,2.111,0.004,-0.031,0.012,-1.884,11.449,2.111,-0.144,-0.376,0.679,5.72,-0.53,2,0
203898,0.059,-0.039,1.215,21.001,42.570,-32.079,0.9877,0.0023,0.1417,-0.0668,-0.861,16.269,172.139,-1.979,14.120,2.111,0.004,-0.031,0.012,-5.569,-2.482,2.111,-0.314,-0.501,0.447,5.71,-0.64,2,0
203922,0.046,-0.015,1.338,11.575,34.478,-28.205,0.9860,0.0059,0.1488,-0.0751,-0.642,17.117,171.187,-0.880,12.009,2.111,0.004,-0.031,0.012,-4.026,-15.638,2.111,-0.369,-0.631,0.158,5.64,-2.05,2,0
203942,0.039,-0.004,1.400,4.857,24.173,-25.349,0.9853,0.0067,0.1512,-0.0790,-0.643,17.399,170.736,-0.352,12.009,2.111,0.004,-0.031,0.012,1.521,-18.622,2.111,-0.141,-0.576,-0.016,5.61,-1.95,2,0
203959,0.033,0.005,1.447,-6.158,10.190,-22.353,0.9848,0.0060,0.1522,-0.0830,-0.808,17.504,170.240,-0.176,12.625,2.111,0.004,-0.031,0.012,2.677,-19.188,2.111,0.049,-0.314,-0.179,5.58,-1.88,2,0
203973,0.029,0.012,1.477,-14.579,-1.586,-20.240,0.9848,0.0043,0.1514,-0.0854,-1.042,17.392,169.930,-0.176,12.713,2.111,0.004,-0.031,0.012,3.880,-16.628,2.111,0.174,-0.140,-0.288,5.55,-1.88,2,0
203988,0.030,0.015,1.487,-21.875,-15.264,-17.277,0.9850,0.0012,0.1488,-0.0876,-1.420,17.056,169.625,-0.044,12.757,2.111,0.004,-0.031,0.012,6.161,-15.523,2.111,0.297,0.030,-0.394,5.52,-1.99,2,0
204007,0.033,0.018,1.460,-27.195,-25.454,-15.000,0.9855,-0.0033,0.1441,-0.0895,-1.931,16.468,169.346,-0.044,12.713,2.111,0.004,-0.031,0.012,9.875,-13.365,2.111,0.414,0.191,-0.495,5.48,-1.90,2,0
204039,0.045,0.013,1.347,-18.011,-33.782,-10.529,0.9868,-0.0111,0.1331,-0.0920,-2.755,15.104,168.984,0.000,12.757,2.111,0.004,-0.031,0.012,14.741,-8.654,2.111,0.573,0.414,-0.634,5.44,-1.59,2,0
204069,0.056,0.004,1.201,3.523,-29.202,-7.998,0.9880,-0.0138,0.1220,-0.0940,-2.960,13.801,168.776,-0.044,15.440,2.287,0.004,-0.031,0.012,15.849,2.997,2.287,0.209,0.568,-0.726,5.42,-0.43,2,0
204091,0.057,-0.004,1.106,15.802,-19.411,-7.247,0.9887,-0.0120,0.1151,-0.0956,-2.694,13.018,168.649,-0.176,16.276,2.287,0.004,-0.031,0.012,14.116,10.701,2.287,-0.032,0.654,-0.736,5.42,-0.41,2,0
204110,0.070,-0.008,1.037,19.873,-7.153,-8.645,0.9890,-0.0091,0.1106,-0.0973,-2.319,12.529,168.503,-0.176,16.364,2.287,0.004,-0.031,0.012,12.224,12.657,2.287,-0.209,0.439,-0.492,5.41,-0.40,2,0
204550,0.061,-0.024,1.231,9.758,48.995,-5.686,0.9814,0.0219,0.1334,-0.1360,0.403,15.536,164.273,-0.176,15.748,2.111,0.004,-0.031,0.012,-2.938,1.270,2.111,-0.503,-0.682,0.257,5.14,-0.27,2,0
204578,0.044,-0.022,1.328,-8.547,43.316,-8.077,0.9803,0.0226,0.1401,-0.1372,0.351,16.309,164.116,-0.176,15.572,2.287,0.004,-0.031,0.012,-3.142,-1.579,2.287,-0.204,-0.727,0.405,5.12,-0.30,2,0
204591,0.038,-0.022,1.410,-29.146,32.405,-10.398,0.9795,0.0195,0.1451,-0.1383,-0.116,16.838,163.914,-0.264,15.440,2.287,0.004,-0.031,0.012,-1.790,-4.107,2.287,0.016,-0.441,0.514,5.11,-0.69,2,0
204610,0.025,-0.023,1.473,-42.900,21.068,-10.626,0.9790,0.0138,0.1483,-0.1390,-0.846,17.108,163.712,-0.352,15.440,2.287,0.004,-0.031,0.012,2.153,-5.755,2.287,0.180,-0.201,0.594,5.10,-0.65,2,0
204806,0.040,-0.060,0.965,40.117,24.646,5.270,0.9817,-0.0214,0.1283,-0.1390,-4.600,14.240,163.302,-0.176,15.088,2.287,0.004,-0.031,0.012,25.640,3.289,2.639,-0.493,-0.138,-0.663,5.13,0.74,2,0
204823,0.040,-0.060,0.965,40.117,24.646,5.270,0.9817,-0.0214,0.1283,-0.1390,-4.600,14.240,163.302,-0.176,15.088,2.287,0.004,-0.031,0.012,25.640,3.289,2.639,-0.493,-0.138,-0.663,5.13,0.74,2,0
204850,0.022,-0.063,1.076,16.618,38.975,0.284,0.9807,-0.0069,0.1361,-0.1399,-3.065,15.371,163.351,-0.176,14.164,2.111,0.004,-0.031,0.012,16.159,-1.330,2.111,-0.397,-0.469,-0.151,5.10,-0.66,2,0
204869,0.008,-0.071,1.148,-1.707,37.211,-2.973,0.9801,-0.0053,0.1402,-0.1404,-2.968,15.858,163.285,-0.044,14.164,2.111,0.004,-0.031,0.012,15.013,-5.544,2.111,-0.165,-0.558,0.040,5.09,-0.62,2,0
204900,-0.007,-0.074,1.247,-26.313,29.333,-7.494,0.9793,-0.0080,0.1448,-0.1412,-3.374,16.339,163.110,-0.176,12.361,2.111,0.004,-0.031,0.012,16.396,-11.499,2.111,0.068,-0.644,0.231,5.08,-0.56,2,0
204914,-0.013,-0.075,1.319,-38.065,20.189,-10.454,0.9787,-0.0130,0.1476,-0.1419,-4.023,16.568,162.910,-0.704,11.349,2.111,0.004,-0.031,0.012,17.096,-16.247,2.111,0.223,-0.481,0.359,5.08,-0.28,2,0
204938,-0.022,-0.081,1.397,-46.332,4.498,-13.955,0.9782,-0.0220,0.1490,-0.1432,-5.128,16.573,162.594,-1.232,10.073,2.111,0.004,-0.031,0.012,19.057,-20.990,2.111,0.390,-0.162,0.497,5.07,-0.26,2,0
204963,-0.022,-0.087,1.413,-47.666,-15.697,-17.309,0.9779,-0.0354,0.1461,-0.1454,-6.675,15.990,162.142,-1.408,9.941,2.111,0.004,-0.031,0.012,27.101,-21.336,2.111,0.549,0.142,0.629,5.08,0.19,2,0
204983,-0.019,-0.092,1.362,-37.295,-23.512,-17.481,0.9779,-0.0436,0.1418,-0.1473,-7.566,15.333,161.850,-1.408,9.897,2.111,0.004,-0.031,0.012,31.776,-19.938,2.111,0.632,0.299,0.696,5.08,0.18,2,0
205012,-0.005,-0.096,1.215,-9.499,-28.088,-17.624,0.9783,-0.0503,0.1332,-0.1506,-8.216,14.209,161.468,-3.431,9.897,2.111,0.004,-0.031,0.012,29.829,-15.900,2.111,0.391,0.471,0.771,5.13,0.41,2,0
205029,0.001,-0.096,1.098,8.705,-24.338,-17.266,0.9786,-0.0510,0.1273,-0.1532,-8.210,13.501,161.229,-4.927,9.941,2.111,0.004,-0.031,0.012,21.961,-12.944,2.111,0.160,0.559,0.795,5.17,2.51,2,0
205061,0.020,-0.087,0.927,28.719,-8.655,-15.936,0.9791,-0.0467,0.1185,-0.1585,-7.592,12.546,160.770,-8.710,11.085,2.111,0.004,-0.031,0.012,-0.199,-5.885,2.111,-0.161,0.246,0.738,5.24,2.22,2,0
205078,0.028,-0.080,0.875,32.557,2.356,-14.862,0.9792,-0.0427,0.1158,-0.1612,-7.112,12.297,160.530,-10.557,11.701,2.111,0.004,-0.031,0.012,-16.175,-2.081,2.111,-0.286,0.060,0.624,5.27,1.64,2,0
205106,0.035,-0.070,0.845,27.247,20.775,-13.909,0.9789,-0.0367,0.1149,-0.1651,-6.404,12.308,160.119,-12.801,12.273,2.111,0.004,-0.031,0.012,-30.694,0.083,2.111,-0.451,-0.185,0.454,5.31,1.56,2,0
205126,0.036,-0.060,0.888,16.734,35.020,-13.190,0.9780,-0.0314,0.1180,-0.1690,-5.966,12.719,159.722,-12.801,11.657,2.111,0.004,-0.031,0.012,-37.158,-3.546,2.111,-0.569,-0.360,0.368,5.34,1.48,2,0
205402,0.010,-0.085,0.990,-0.939,33.065,-6.907,0.9693,-0.1049,0.1251,-0.1836,-14.758,11.769,157.019,-3.783,9.809,2.111,0.004,-0.031,0.012,56.361,-4.992,2.111,0.740,-0.189,0.181,5.57,1.78,2,0
205423,0.010,-0.093,1.064,22.270,42.377,-6.634,0.9686,-0.0999,0.1308,-0.1864,-14.373,12.481,156.629,-0.176,9.677,2.111,0.004,-0.031,0.012,72.295,-8.700,2.111,0.659,-0.363,0.097,5.61,1.69,2,0
205443,0.007,-0.094,1.135,35.269,44.613,-7.768,0.9682,-0.0936,0.1349,-0.1889,-13.792,13.058,156.331,0.308,12.229,2.111,0.004,-0.031,0.012,75.675,-8.468,2.111,0.589,-0.480,0.196,5.64,1.61,2,0
205477,-0.001,-0.097,1.269,55.352,35.435,-11.161,0.9677,-0.0791,0.1401,-0.1941,-12.345,13.917,155.804,0.352,14.692,2.111,0.004,-0.031,0.012,71.001,0.625,2.111,0.174,-0.161,0.406,5.65,1.35,2,0
205498,-0.005,-0.095,1.363,64.128,17.852,-15.405,0.9676,-0.0643,0.1407,-0.1995,-10.732,14.274,155.355,0.352,15.924,2.111,0.004,-0.031,0.012,60.439,5.772,2.111,-0.097,0.107,0.543,5.64,-0.21,2,0
205511,-0.009,-0.096,1.388,64.157,9.015,-18.559,0.9676,-0.0575,0.1393,-0.2023,-9.957,14.266,155.131,3.343,16.496,2.111,0.004,-0.031,0.012,64.935,7.693,2.111,-0.200,0.209,0.595,5.64,-0.21,2,0
205550,-0.004,-0.085,1.382,45.843,-6.610,-27.381,0.9674,-0.0413,0.1318,-0.2120,-8.037,13.738,154.307,10.997,15.308,2.111,0.004,-0.031,0.012,90.000,5.285,2.111,0.098,0.450,0.719,5.68,1.20,2,0
205572,-0.003,-0.068,1.325,30.105,-4.667,-30.738,0.9668,-0.0338,0.1257,-0.2198,-7.114,13.193,153.566,14.956,14.120,2.111,0.004,-0.031,0.012,90.000,2.651,2.111,0.306,0.474,0.784,5.71,1.14,2,0
205604,0.000,-0.052,1.247,8.830,12.492,-30.684,0.9653,-0.0296,0.1222,-0.2289,-6.660,12.852,152.574,17.771,12.845,2.111,0.004,-0.031,0.012,90.000,2.247,2.111,0.498,0.067,0.843,5.74,0.95,2,0
205622,0.004,-0.046,1.232,3.001,20.278,-30.189,0.9645,-0.0289,0.1226,-0.2321,-6.636,12.887,152.188,18.563,12.757,2.111,0.004,-0.031,0.012,90.000,-0.449,2.111,0.564,-0.074,0.864,5.75,0.91,2,0
205642,0.004,-0.039,1.221,-0.103,29.093,-28.993,0.9634,-0.0284,0.1241,-0.2357,-6.673,13.047,151.737,19.883,12.713,2.111,0.004,-0.031,0.012,90.000,-0.860,2.111,0.614,-0.180,0.864,5.76,0.91,2,0
206178,0.007,0.040,0.974,65.148,6.226,-5.084,0.9198,0.1617,0.0798,-0.3484,14.507,15.047,140.432,25.689,6.862,2.111,0.004,-0.031,0.012,66.148,-28.362,2.111,0.066,0.113,-0.439,6.39,1.53,2,0
206830,-0.068,-0.032,0.986,-21.148,42.331,15.439,0.9467,0.0622,0.0739,-0.3073,4.216,10.265,144.414,-34.179,18.475,2.287,0.004,-0.031,0.012,-90.000,28.218,2.287,-0.768,-0.268,-0.009,7.60,1.86,2,0
207111,-0.111,-0.083,1.008,-30.439,24.246,1.825,0.9534,-0.0390,0.1002,-0.2820,-7.632,9.728,146.389,-26.569,26.041,2.111,0.004,-0.031,0.012,-90.000,51.227,2.111,-0.763,0.330,0.134,8.06,2.22,2,0
207140,-0.112,-0.084,1.004,-29.074,36.899,3.473,0.9529,-0.0416,0.1051,-0.2813,-8.084,10.189,146.380,-24.238,27.581,2.111,0.004,-0.031,0.012,-90.000,58.346,2.111,-0.806,0.087,-0.010,8.10,2.11,2,0
207170,-0.112,-0.090,1.029,-31.668,50.986,4.919,0.9517,-0.0450,0.1180,-0.2797,-8.909,11.500,146.341,-22.126,28.152,1.408,0.004,-0.031,0.012,-69.978,58.160,1.408,-0.641,-0.245,-0.306,8.16,1.75,2,0
207188,-0.117,-0.089,1.058,-34.470,52.940,5.075,0.9510,-0.0468,0.1248,-0.2790,-9.341,12.200,146.303,-21.114,27.581,1.408,0.004,-0.031,0.012,-65.642,56.068,1.408,-0.396,-0.357,-0.351,8.19,1.66,2,0
207220,-0.125,-0.093,1.096,-38.488,52.110,3.804,0.9498,-0.0502,0.1354,-0.2776,-10.091,13.262,146.241,-20.630,26.525,1.408,0.004,-0.031,0.012,-55.835,46.465,1.408,-0.052,-0.516,-0.311,8.23,1.59,2,0
207253,-0.153,-0.098,1.172,-43.552,36.383,1.251,0.9471,-0.0596,0.1534,-0.2754,-11.785,14.943,146.027,-20.543,22.566,2.111,0.004,-0.031,0.012,-47.875,29.823,2.111,0.312,-0.640,0.138,8.30,1.54,2,0
207284,-0.164,-0.102,1.179,-44.021,16.634,-2.766,0.9456,-0.0681,0.1612,-0.2742,-13.022,15.514,145.874,-20.543,19.839,2.111,0.004,-0.031,0.012,-41.926,20.352,2.111,0.502,-0.261,0.376,8.35,1.80,2,0
207302,-0.166,-0.102,1.173,-43.001,5.167,-5.111,0.9451,-0.0727,0.1629,-0.2739,-13.606,15.547,145.807,-20.543,19.663,2.111,0.004,-0.031,0.012,-37.693,14.623,2.111,0.576,-0.073,0.469,8.38,1.71,2,0
207332,-0.163,-0.109,1.118,-41.628,-13.153,-11.704,0.9443,-0.0831,0.1619,-0.2743,-14.741,15.079,145.648,-20.059,19.135,2.111,0.004,-0.031,0.012,-32.876,15.244,2.111,0.687,0.208,0.608,8.44,1.69,2,0
207652,-0.208,-0.084,1.092,27.621,-15.621,-35.889,0.9348,-0.0087,0.1089,-0.3379,-5.255,11.401,139.728,-19.355,5.103,2.111,0.004,-0.031,0.012,-74.552,-20.257,2.111,-0.889,-0.032,0.970,8.98,1.12,2,0
207670,-0.209,-0.082,1.088,17.321,-15.116,-37.490,0.9330,-0.0051,0.1030,-0.3448,-4.701,10.873,138.986,-21.994,4.399,2.111,0.004,-0.031,0.012,-90.000,-20.966,2.111,-0.913,-0.241,0.976,9.02,1.14,2,0
207689,-0.207,-0.080,1.074,7.753,-11.783,-38.034,0.9312,-0.0029,0.1002,-0.3504,-4.418,10.639,138.350,-20.894,-1.232,2.287,0.004,-0.031,0.012,-90.000,-36.363,2.111,-0.928,-0.367,0.980,9.05,1.72,2,0
207727,-0.182,-0.074,1.020,-28.448,-4.054,-38.993,0.9253,-0.0051,0.0979,-0.3664,-4.729,10.227,136.371,-24.282,-7.874,2.815,0.004,-0.031,0.012,-90.000,-60.000,2.815,-0.583,-0.626,0.988,9.13,1.50,2,0
207758,-0.171,-0.071,0.984,-44.458,-9.879,-37.659,0.9223,-0.0122,0.0982,-0.3735,-5.582,9.906,135.430,-24.282,-9.721,2.815,0.004,-0.031,0.012,-90.000,-60.000,2.815,-0.217,-0.712,0.991,9.17,1.63,2,0
207782,-0.150,-0.071,0.943,-54.342,-19.472,-37.318,0.9188,-0.0249,0.0979,-0.3815,-7.012,9.254,134.329,-23.402,-10.909,2.815,0.004,-0.031,0.012,-90.000,-60.000,2.815,0.110,-0.384,0.993,9.22,1.55,2,0
207810,-0.135,-0.067,0.895,-51.765,-27.273,-34.790,0.9159,-0.0372,0.0960,-0.3880,-8.294,8.450,133.468,-23.226,-12.097,2.815,0.004,-0.031,0.012,-85.289,-60.000,2.815,-0.115,-0.043,0.910,9.28,2.19,2,0
207839,-0.120,-0.064,0.822,-49.932,-34.453,-32.493,0.9129,-0.0508,0.0923,-0.3943,-9.612,7.382,132.654,-24.853,-13.372,2.639,0.004,-0.031,0.012,-86.431,-60.000,2.815,-0.211,0.230,0.809,9.34,2.00,2,0
208386,-0.101,-0.145,0.413,-40.506,6.628,-11.814,0.8523,-0.2058,0.1185,-0.4659,-27.470,0.592,122.529,-33.519,-12.053,2.639,0.004,-0.031,0.012,-29.864,-43.801,2.639,0.145,-0.371,-0.176,10.15,0.92,2,0
208628,-0.062,-0.204,0.323,-8.581,22.456,-45.189,0.8263,-0.2270,0.1075,-0.5042,-28.956,-2.940,117.980,-33.519,11.437,4.223,0.004,-0.031,0.012,-19.231,42.536,4.223,-0.132,0.371,0.882,10.20,-0.77,2,0
208651,-0.060,-0.186,0.468,-16.018,48.580,-45.372,0.8144,-0.2224,0.1218,-0.5219,-29.322,-1.937,115.204,-29.384,26.569,3.519,0.004,-0.031,0.012,-15.674,60.000,4.047,-0.062,-0.108,0.927,10.15,-1.16,2,0
208678,-0.061,-0.181,0.505,-17.343,52.625,-45.846,0.8117,-0.2209,0.1255,-0.5259,-29.394,-1.640,114.553,-25.557,29.340,3.519,0.004,-0.031,0.012,-0.185,60.000,3.519,0.040,-0.194,0.934,10.13,-1.10,2,0
208707,-0.083,-0.162,0.722,-13.828,57.477,-41.825,0.7980,-0.2125,0.1445,-0.5451,-29.776,-0.057,111.343,-19.487,34.619,4.047,0.004,-0.031,0.012,52.792,60.000,4.047,0.397,-0.471,0.957,10.04,-2.43,2,0
208733,-0.089,-0.153,0.807,-7.659,52.832,-40.390,0.7933,-0.2085,0.1505,-0.5519,-29.795,0.498,110.211,-8.226,34.619,3.519,0.004,-0.031,0.012,90.000,60.000,3.519,0.507,-0.219,0.897,10.00,-2.32,2,0
208751,-0.103,-0.147,0.921,5.080,40.661,-37.494,0.7877,-0.2026,0.1561,-0.5604,-29.622,1.082,108.851,-7.390,34.619,2.815,0.004,-0.031,0.012,90.000,60.000,2.815,0.605,0.024,0.719,9.94,-2.25,2,0
208772,-0.115,-0.143,1.013,25.540,26.667,-35.896,0.7842,-0.1964,0.1571,-0.5672,-29.102,1.349,107.895,-7.962,34.619,2.815,0.004,-0.031,0.012,90.000,60.000,2.815,0.461,0.218,0.558,9.89,-2.56,2,0
208806,-0.121,-0.139,1.109,47.730,8.433,-35.353,0.7809,-0.1862,0.1525,-0.5764,-27.822,1.356,106.804,-8.886,34.619,2.815,0.004,-0.031,0.012,90.000,60.000,2.815,0.101,0.411,0.603,9.82,-2.41,2,0
208822,-0.121,-0.133,1.149,61.086,0.034,-36.785,0.7790,-0.1759,0.1441,-0.5843,-26.268,1.091,106.004,-9.370,34.619,2.639,0.004,-0.031,0.012,90.000,60.000,2.639,-0.136,0.538,0.688,9.74,-3.08,2,0
208838,-0.118,-0.126,1.154,65.262,-0.209,-37.503,0.7778,-0.1685,0.1375,-0.5897,-25.100,0.869,105.476,-9.941,34.619,2.639,0.004,-0.031,0.012,83.406,60.000,2.639,-0.265,0.607,0.735,9.70,-2.93,2,0
208853,-0.115,-0.124,1.147,65.825,3.232,-38.999,0.7766,-0.1616,0.1316,-0.5945,-24.042,0.704,104.981,-10.425,34.619,2.639,0.004,-0.031,0.012,76.775,60.000,2.639,-0.362,0.659,0.770,9.66,-2.93,2,0
208878,-0.103,-0.112,1.142,58.459,14.526,-41.477,0.7735,-0.1484,0.1224,-0.6039,-22.175,0.586,103.927,-10.469,34.619,2.639,0.004,-0.031,0.012,63.980,60.000,2.639,-0.509,0.387,0.823,9.59,-2.72,2,0
208903,-0.100,-0.103,1.165,47.237,29.359,-42.977,0.7695,-0.1361,0.1172,-0.6128,-20.674,0.776,102.794,-9.941,34.619,2.287,0.004,-0.031,0.012,57.890,60.000,2.287,-0.471,0.088,0.861,9.51,-3.20,2,0
209366,-0.118,-0.086,1.862,-20.197,34.918,-24.845,0.6643,0.0379,0.1336,-0.7345,-8.632,13.487,83.229,-19.135,34.619,1.760,0.004,-0.031,0.012,-15.498,60.000,1.760,0.378,0.341,0.209,8.01,-3.56,2,0
209382,-0.118,-0.086,1.862,-20.197,34.918,-24.845,0.6643,0.0379,0.1336,-0.7345,-8.632,13.487,83.229,-19.135,34.619,1.760,0.004,-0.031,0.012,-15.498,60.000,1.760,0.378,0.341,0.209,8.01,-3.56,2,0
209407,-0.110,-0.095,1.802,-5.139,18.118,-20.691,0.6573,0.0389,0.1402,-0.7395,-9.261,13.995,82.129,-25.161,34.619,1.408,0.004,-0.031,0.012,-81.425,60.000,1.408,-0.116,0.578,-0.149,7.87,-3.21,2,0
209619,-0.080,-0.102,1.872,-25.530,57.689,-26.806,0.6131,0.0950,0.1703,-0.7655,-8.879,20.750,75.757,-27.537,34.619,2.111,0.004,-0.031,0.012,-90.000,48.569,2.111,-0.694,-0.610,0.762,7.24,-2.51,2,0
209638,-0.080,-0.100,1.911,-37.623,43.608,-24.613,0.6068,0.0971,0.1834,-0.7673,-10.155,21.812,74.711,-24.282,34.619,2.111,0.004,-0.031,0.012,-70.619,44.878,2.111,-0.270,-0.174,0.659,7.16,-2.36,2,0
209658,-0.084,-0.099,1.917,-44.154,32.386,-22.192,0.6033,0.0960,0.1918,-0.7681,-11.142,22.272,74.100,-23.578,34.619,2.111,0.004,-0.031,0.012,-61.680,43.044,2.111,-0.038,0.041,0.461,7.10,-3.02,2,0
209683,-0.074,-0.096,1.886,-46.307,19.264,-19.655,0.6004,0.0927,0.2003,-0.7686,-12.388,22.527,73.494,-24.633,34.619,2.287,0.004,-0.031,0.012,-59.604,42.214,2.111,0.186,0.247,0.156,7.04,-2.88,2,0
209710,-0.058,-0.102,1.799,-42.413,6.714,-15.177,0.5977,0.0858,0.2091,-0.7692,-13.715,22.453,72.967,-25.689,34.619,2.639,0.004,-0.031,0.012,-59.954,42.178,2.639,0.177,0.433,-0.111,6.96,-2.74,2,0
209732,-0.056,-0.108,1.715,-35.821,5.028,-14.011,0.5963,0.0811,0.2136,-0.7695,-14.518,22.308,72.672,-26.217,34.619,2.639,0.004,-0.031,0.012,-58.645,42.660,2.639,-0.038,0.536,-0.246,6.92,-2.57,2,0
209752,-0.040,-0.116,1.607,-26.609,8.309,-14.310,0.5948,0.0774,0.2170,-0.7701,-15.151,22.173,72.381,-26.217,34.619,2.639,0.004,-0.031,0.012,-55.306,43.190,2.639,-0.214,0.621,-0.184,6.87,-2.20,2,0
209773,-0.031,-0.124,1.503,-15.048,17.874,-14.474,0.5927,0.0756,0.2200,-0.7711,-15.642,22.172,72.014,-26.833,30.968,2.639,0.004,-0.031,0.012,-53.510,36.054,2.639,-0.371,0.377,-0.024,6.83,-2.09,2,0
209800,-0.021,-0.133,1.397,-3.474,31.303,-15.418,0.5895,0.0769,0.2229,-0.7726,-15.936,22.436,71.513,-25.161,29.604,2.639,0.004,-0.031,0.012,-48.407,25.078,2.639,-0.506,0.080,0.176,6.79,-1.73,2,0
209813,-0.017,-0.134,1.387,-1.072,33.097,-16.339,0.5889,0.0774,0.2234,-0.7729,-15.963,22.507,71.414,-25.161,29.604,2.639,0.004,-0.031,0.012,-48.407,25.078,2.639,-0.526,0.038,0.208,6.78,-1.73,2,0
209842,-0.010,-0.136,1.363,2.731,38.504,-17.107,0.5868,0.0796,0.2247,-0.7739,-16.016,22.760,71.098,-22.522,27.977,2.639,0.004,-0.031,0.012,-46.061,24.447,2.639,-0.580,-0.081,0.299,6.76,-1.65,2,0
209870,-0.006,-0.141,1.375,-8.968,53.789,-22.519,0.5758,0.0915,0.2346,-0.7778,-16.553,24.360,69.427,-15.220,20.806,2.639,0.004,-0.031,0.012,0.633,-1.122,2.639,-0.033,-0.445,0.577,6.69,-1.37,2,0
209879,-0.014,-0.144,1.407,-14.712,54.029,-23.353,0.5718,0.0948,0.2394,-0.7789,-16.954,24.931,68.794,-15.220,20.367,2.639,0.004,-0.031,0.012,8.382,-15.433,2.639,0.122,-0.528,0.640,6.67,-1.30,2,0
209902,-0.022,-0.141,1.459,-19.561,48.026,-25.111,0.5658,0.0988,0.2472,-0.7803,-17.705,25.720,67.821,-16.276,18.475,2.639,0.004,-0.031,0.012,8.661,-22.978,2.639,0.311,-0.630,0.717,6.63,-1.35,2,0
209920,-0.026,-0.140,1.475,-20.070,44.953,-24.810,0.5639,0.0998,0.2497,-0.7808,-17.968,25.938,67.502,-16.276,18.475,2.639,0.004,-0.031,0.012,7.740,-25.490,2.639,0.364,-0.658,0.739,6.61,-1.35,2,0
210202,0.040,-0.127,0.879,-1.948,33.199,-36.398,0.5032,0.0982,0.1872,-0.8379,-13.273,20.671,59.546,-12.449,17.507,2.639,0.004,-0.031,0.012,4.359,-13.041,2.639,0.311,-0.362,0.970,6.41,-0.84,2,0
210242,0.028,-0.115,1.016,-3.415,39.040,-33.224,0.4900,0.1038,0.1947,-0.8433,-14.099,21.463,57.638,-5.674,17.199,2.111,0.004,-0.031,0.012,41.272,-14.122,2.111,0.550,-0.582,0.902,6.39,-0.42,2,0
210258,0.018,-0.109,1.099,3.572,32.780,-31.268,0.4842,0.1068,0.1971,-0.8458,-14.348,21.805,56.801,-5.674,17.199,2.111,0.004,-0.031,0.012,45.598,-15.949,2.111,0.632,-0.659,0.734,6.38,-0.40,2,0
210271,0.017,-0.108,1.150,11.939,26.812,-30.296,0.4808,0.1084,0.1974,-0.8474,-14.376,21.938,56.339,-5.674,17.199,2.111,0.004,-0.031,0.012,45.815,-16.310,2.111,0.631,-0.497,0.659,6.38,-0.40,2,0
210292,0.005,-0.105,1.258,26.695,13.212,-27.417,0.4751,0.1111,0.1949,-0.8509,-14.117,21.980,55.597,-6.334,17.199,2.111,0.004,-0.031,0.012,44.683,-16.710,2.111,0.306,-0.199,0.462,6.37,-0.38,2,0
210330,0.011,-0.103,1.356,52.293,-14.638,-26.084,0.4668,0.1130,0.1822,-0.8580,-12.853,21.353,54.667,-9.062,18.783,2.111,0.004,-0.031,0.012,20.877,-9.375,2.111,-0.092,0.167,0.341,6.32,-1.44,2,0
210343,0.015,-0.103,1.352,56.730,-20.894,-26.189,0.4638,0.1128,0.1748,-0.8612,-12.140,20.886,54.366,-9.765,19.487,2.111,0.004,-0.031,0.012,18.341,-8.307,2.111,-0.212,0.277,0.407,6.30,-1.37,2,0
210366,0.022,-0.104,1.294,60.945,-26.655,-27.923,0.4590,0.1117,0.1621,-0.8663,-10.945,20.024,53.894,-9.238,18.827,2.111,0.004,-0.031,0.012,8.996,-4.179,2.111,-0.381,0.432,0.533,6.27,-1.28,2,0
210382,0.026,-0.104,1.265,61.735,-27.082,-28.231,0.4558,0.1108,0.1536,-0.8697,-10.152,19.433,53.570,-9.238,18.783,2.111,0.004,-0.031,0.012,5.404,-2.556,2.111,-0.452,0.497,0.587,6.26,-1.04,2,0
210399,0.033,-0.100,1.153,57.511,-21.738,-29.431,0.4504,0.1094,0.1407,-0.8748,-8.953,18.555,53.021,-9.282,18.123,2.111,0.004,-0.031,0.012,-0.080,-1.987,2.111,-0.552,0.582,0.662,6.24,-0.99,2,0
210413,0.035,-0.099,1.130,55.137,-19.656,-30.154,0.4484,0.1091,0.1364,-0.8766,-8.562,18.274,52.804,-9.282,18.123,2.111,0.004,-0.031,0.012,-2.800,-1.006,2.111,-0.595,0.451,0.695,6.23,-0.99,2,0
210450,0.042,-0.095,1.001,34.986,-1.001,-32.058,0.4392,0.1083,0.1226,-0.8833,-7.314,17.403,51.755,-9.370,18.783,2.111,0.004,-0.031,0.012,-10.047,2.454,2.111,-0.698,0.029,0.783,6.21,-0.68,2,0
210959,-0.019,-0.069,1.298,-12.639,-9.759,-11.817,0.3453,0.1156,0.1372,-0.9212,-10.478,17.919,39.435,-12.317,15.308,2.111,0.004,-0.031,0.012,-10.225,-9.541,2.111,0.356,0.128,-0.257,5.58,-0.98,2,0
211233,-0.007,-0.091,1.140,-39.436,8.220,-28.956,0.3013,0.0997,0.1163,-0.9411,-9.457,14.937,34.261,-17.595,14.692,2.111,0.004,-0.031,0.012,-42.727,-0.688,2.111,0.193,-0.081,0.881,5.39,-1.60,2,0
211257,-0.006,-0.085,1.184,-44.137,-9.519,-25.964,0.2960,0.0934,0.1249,-0.9424,-10.723,14.475,33.515,-14.164,11.305,2.111,0.004,-0.031,0.012,-19.705,-9.396,2.111,0.354,0.135,0.775,5.36,-1.52,2,0
211286,-0.003,-0.081,1.161,-39.171,-19.681,-21.698,0.2918,0.0833,0.1328,-0.9435,-11.993,13.578,32.934,-13.504,8.974,2.111,0.004,-0.031,0.012,-9.113,-16.535,2.111,0.523,0.266,0.380,5.32,-1.34,2,0
211310,0.001,-0.080,1.101,-27.864,-20.190,-19.138,0.2889,0.0752,0.1368,-0.9445,-12.738,12.771,32.583,-17.331,9.589,2.111,0.004,-0.031,0.012,-24.911,-10.872,2.111,0.249,0.458,0.052,5.28,-1.28,2,0
211338,0.006,-0.086,1.008,-4.712,-9.220,-15.568,0.2855,0.0678,0.1378,-0.9460,-13.115,11.942,32.209,-19.311,10.733,2.111,0.004,-0.031,0.012,-33.936,-4.072,2.111,-0.077,0.325,-0.223,5.28,-0.03,2,0
211359,0.008,-0.090,0.963,11.382,0.719,-14.985,0.2830,0.0657,0.1357,-0.9472,-12.967,11.614,31.949,-19.839,10.777,2.111,0.004,-0.031,0.012,-38.023,-2.778,2.111,-0.231,0.105,-0.263,5.27,-0.03,2,0
211389,0.009,-0.094,0.940,29.297,19.109,-13.564,0.2788,0.0675,0.1292,-0.9492,-12.234,11.549,31.497,-20.411,10.953,2.111,0.004,-0.031,0.012,-40.834,-2.261,2.111,-0.409,-0.151,-0.257,5.26,-0.15,2,0
211418,0.005,-0.096,0.976,44.242,32.924,-13.914,0.2728,0.0759,0.1185,-0.9517,-10.851,12.074,30.834,-20.543,10.865,2.111,0.004,-0.031,0.012,-52.585,-4.081,2.111,-0.589,-0.410,0.007,5.22,-1.15,2,0
211429,0.006,-0.097,0.985,44.842,33.025,-14.327,0.2720,0.0771,0.1171,-0.9520,-10.672,12.152,30.755,-20.543,10.733,2.111,0.004,-0.031,0.012,-52.585,-4.081,2.111,-0.605,-0.433,0.046,5.22,-1.15,2,0
211450,-0.002,-0.096,1.032,34.978,30.684,-17.029,0.2671,0.0842,0.1089,-0.9538,-9.603,12.636,30.225,-20.630,10.733,2.111,0.004,-0.031,0.012,-59.565,-6.386,2.111,-0.696,-0.564,0.266,5.19,-1.09,2,0
211477,-0.007,-0.091,1.097,4.373,19.523,-21.500,0.2615,0.0886,0.1050,-0.9554,-9.110,12.954,29.574,-20.543,10.513,2.111,0.004,-0.031,0.012,-62.511,-8.187,2.111,-0.566,-0.343,0.447,5.14,-1.92,2,0
211962,-0.059,-0.103,1.722,-34.789,60.739,-25.954,0.1642,0.1286,0.1760,-0.9620,-18.130,17.776,16.508,-17.947,31.012,2.111,0.004,-0.031,0.012,-0.785,45.402,2.111,0.684,-0.688,0.575,4.33,-3.00,2,0
212002,-0.082,-0.096,1.847,-13.624,35.148,-19.067,0.1529,0.1422,0.1876,-0.9598,-19.596,19.286,14.742,-10.557,29.604,2.111,0.004,-0.031,0.012,45.473,40.665,2.111,0.805,-0.097,0.054,4.20,-2.50,2,0
212198,-0.080,-0.097,1.856,-3.379,23.936,-18.387,0.1502,0.1442,0.1884,-0.9598,-19.730,19.475,14.374,-11.041,26.217,2.111,0.004,-0.031,0.012,46.403,35.442,2.111,0.831,0.048,-0.063,4.17,-2.50,2,0
212227,0.027,-0.102,1.220,60.791,41.888,-37.874,0.0905,0.1460,0.0951,-0.9805,-9.672,17.671,9.038,-10.821,21.862,2.111,0.004,-0.031,0.012,-4.330,23.543,2.111,-0.740,-0.145,0.835,3.92,-1.71,2,0
212250,0.016,-0.080,1.337,37.144,57.642,-38.601,0.0739,0.1596,0.0815,-0.9810,-8.287,18.981,7.230,-8.666,13.416,2.111,0.004,-0.031,0.012,-9.925,-14.737,2.111,-0.668,-0.417,0.888,3.87,-1.27,2,0
212271,0.004,-0.071,1.419,23.670,58.051,-38.420,0.0656,0.1677,0.0777,-0.9806,-7.962,19.818,6.264,-7.654,13.680,2.111,0.004,-0.031,0.012,2.014,-20.702,2.111,-0.384,-0.524,0.908,3.85,-1.20,2,0
212298,-0.013,-0.057,1.516,5.677,52.174,-36.395,0.0573,0.1758,0.0763,-0.9798,-7.946,20.687,5.243,-8.182,14.252,2.111,0.004,-0.031,0.012,-1.157,-22.713,2.111,-0.043,-0.641,0.903,3.81,-1.24,2,0
212330,-0.031,-0.041,1.642,-24.592,33.218,-30.857,0.0472,0.1845,0.0812,-0.9783,-8.753,21.630,3.845,-8.314,16.100,2.287,0.004,-0.031,0.012,1.954,-19.177,2.287,0.245,-0.257,0.549,3.73,-2.53,2,0
212358,-0.034,-0.034,1.677,-35.259,8.446,-24.723,0.0408,0.1863,0.0905,-0.9775,-10.026,21.814,2.846,-10.469,17.551,2.639,0.004,-0.031,0.012,-1.112,-15.102,2.639,0.431,0.053,0.168,3.67,-2.15,2,0
212373,-0.035,-0.031,1.664,-35.134,-1.356,-21.500,0.0389,0.1850,0.0947,-0.9774,-10.581,21.658,2.526,-10.557,17.551,2.639,0.004,-0.031,0.012,-1.059,-14.700,2.639,0.506,0.178,0.014,3.66,-2.15,2,0
212389,-0.029,-0.035,1.624,-32.614,-10.601,-18.774,0.0372,0.1824,0.0992,-0.9775,-11.163,21.341,2.244,-11.041,17.551,2.639,0.004,-0.031,0.012,0.151,-13.551,2.639,0.580,0.301,-0.137,3.65,-0.84,2,0
212407,-0.020,-0.037,1.550,-23.262,-15.888,-15.925,0.0356,0.1783,0.1031,-0.9779,-11.671,20.863,2.010,-11.129,17.683,2.639,0.004,-0.031,0.012,2.617,-11.296,2.639,0.427,0.417,-0.281,3.63,-0.80,2,0
212442,-0.007,-0.048,1.390,3.464,-12.548,-10.836,0.0329,0.1710,0.1049,-0.9791,-11.929,19.986,1.741,-11.613,18.255,2.639,0.004,-0.031,0.012,1.727,-6.205,2.639,0.033,0.578,-0.479,3.63,0.21,2,0
212469,0.010,-0.059,1.242,28.116,3.578,-8.756,0.0298,0.1673,0.0995,-0.9804,-11.326,19.513,1.525,-13.460,19.487,2.639,0.004,-0.031,0.012,-10.157,-0.213,2.639,-0.237,0.283,-0.610,3.64,0.20,2,0
212492,0.017,-0.066,1.166,34.805,18.646,-9.212,0.0268,0.1677,0.0930,-0.9811,-10.600,19.518,1.305,-13.856,20.103,2.639,0.004,-0.031,0.012,-16.058,0.000,2.639,-0.389,0.028,-0.518,3.64,0.16,2,0
212510,0.023,-0.069,1.134,32.217,29.469,-11.245,0.0240,0.1700,0.0876,-0.9812,-10.021,19.744,1.052,-14.340,20.806,2.639,0.004,-0.031,0.012,-22.000,3.936,2.639,-0.480,-0.126,-0.302,3.64,-0.05,2,0
212798,0.002,-0.058,1.241,0.812,40.269,-14.953,-0.0265,0.1938,0.1315,-0.9718,-16.631,21.697,353.673,-17.595,17.199,2.111,0.004,-0.031,0.012,-2.101,-15.059,2.111,0.098,-0.065,-0.015,3.49,-0.44,2,0
212823,-0.007,-0.064,1.297,29.452,55.759,-10.043,-0.0334,0.2055,0.1252,-0.9700,-16.187,22.974,352.751,-19.355,15.220,2.111,0.004,-0.031,0.012,-12.540,-26.064,2.111,-0.237,-0.350,-0.315,3.48,-0.14,2,0
212851,-0.014,-0.068,1.350,33.921,53.642,-8.560,-0.0389,0.2159,0.1165,-0.9687,-15.406,24.152,352.087,-19.839,15.308,2.287,0.004,-0.031,0.012,-22.418,-30.006,2.111,-0.425,-0.510,-0.462,3.48,-0.13,2,0
212869,-0.022,-0.072,1.377,39.068,47.276,-8.869,-0.0424,0.2217,0.1103,-0.9679,-14.835,24.826,351.695,-20.411,15.308,2.111,0.004,-0.031,0.012,-28.578,-32.717,2.111,-0.511,-0.583,-0.373,3.48,-0.13,2,0
212887,-0.029,-0.073,1.406,44.385,39.337,-9.384,-0.0457,0.2258,0.1041,-0.9675,-14.223,25.309,351.385,-20.411,15.220,2.287,0.004,-0.031,0.012,-32.462,-35.184,2.287,-0.600,-0.503,-0.229,3.49,0.01,2,0
212910,-0.046,-0.074,1.488,32.186,24.289,-13.813,-0.0509,0.2300,0.0953,-0.9672,-13.339,25.803,350.902,-20.543,14.604,2.287,0.004,-0.031,0.012,-36.927,-38.777,2.287,-0.686,-0.180,0.035,3.52,1.17,2,0
212937,-0.054,-0.070,1.535,26.317,13.922,-15.668,-0.0534,0.2306,0.0923,-0.9672,-13.043,25.863,350.677,-20.543,14.516,2.639,0.004,-0.031,0.012,-38.636,-39.200,2.287,-0.722,-0.045,0.146,3.53,1.11,2,0
212948,-0.062,-0.070,1.629,6.502,-3.905,-20.840,-0.0584,0.2287,0.0889,-0.9677,-12.733,25.608,350.191,-20.411,13.812,7.038,0.004,-0.031,0.012,-40.371,-41.353,7.038,-0.559,0.196,0.343,3.54,0.97,2,0
212973,-0.063,-0.063,1.676,-13.950,-14.335,-24.283,-0.0624,0.2247,0.0902,-0.9682,-12.936,25.074,349.742,-21.466,13.768,14.076,0.004,-0.031,0.012,-45.511,-39.974,14.076,-0.249,0.357,0.474,3.55,0.11,2,0
212990,-0.058,-0.060,1.681,-25.867,-16.464,-25.668,-0.0643,0.2220,0.0927,-0.9685,-13.244,24.711,349.493,-21.994,13.768,14.780,0.004,-0.031,0.012,-45.874,-37.905,14.780,-0.062,0.453,0.552,3.55,0.10,2,0
213019,-0.049,-0.059,1.563,-60.966,-11.222,-27.441,-0.0689,0.2145,0.1074,-0.9684,-15.027,23.614,348.696,-22.170,14.472,12.669,0.004,-0.031,0.012,-38.883,-32.552,12.669,0.231,0.527,0.676,3.60,1.83,2,0
213559,0.014,-0.080,0.885,37.906,-26.856,-31.338,-0.1901,0.1847,0.0818,-0.9608,-13.905,18.889,335.290,26.173,-1.408,1.760,0.004,-0.031,0.012,90.000,-60.000,1.760,0.776,0.211,0.947,4.46,0.90,2,0
213798,0.005,-0.021,0.984,37.685,-5.292,-22.751,-0.2626,0.1220,-0.0197,-0.9569,-1.556,14.119,329.116,22.126,-1.408,2.111,0.004,-0.031,0.012,90.000,-53.638,2.111,0.731,-0.283,0.771,4.73,0.25,2,0
213818,0.005,-0.017,1.005,44.152,-15.770,-20.510,-0.2658,0.1181,-0.0235,-0.9565,-1.051,13.798,328.811,21.422,-1.408,2.111,0.004,-0.031,0.012,90.000,-53.023,2.111,0.716,-0.114,0.588,4.73,0.25,2,0
213840,0.007,-0.012,1.006,53.853,-27.091,-17.624,-0.2693,0.1119,-0.0286,-0.9561,-0.330,13.255,328.502,20.015,-1.408,2.111,0.004,-0.031,0.012,90.000,-51.116,2.111,0.481,0.052,0.355,4.74,0.24,2,0
213871,0.026,-0.013,0.908,59.490,-42.952,-13.651,-0.2774,0.0894,-0.0435,-0.9556,1.955,11.244,327.817,19.883,-1.232,1.760,0.004,-0.031,0.012,90.000,-44.227,1.760,0.139,0.380,-0.108,4.72,-0.36,2,0
213891,0.029,-0.014,0.826,58.718,-43.493,-11.274,-0.2807,0.0777,-0.0499,-0.9553,3.018,10.165,327.516,18.783,0.572,1.760,0.004,-0.031,0.012,90.000,-36.349,1.760,0.296,0.493,-0.256,4.72,-0.34,2,0
213923,0.034,-0.021,0.739,66.441,-35.608,-9.527,-0.2840,0.0654,-0.0577,-0.9549,4.246,9.073,327.212,15.924,2.551,2.111,0.004,-0.031,0.012,76.651,-28.381,2.111,0.138,0.594,-0.384,4.73,0.52,2,0
213941,0.031,-0.025,0.701,64.316,-26.048,-9.403,-0.2864,0.0568,-0.0650,-0.9542,5.313,8.369,326.980,15.088,2.639,1.760,0.004,-0.031,0.012,58.721,-20.994,2.111,-0.051,0.530,-0.382,4.74,0.52,2,0
213971,0.023,-0.012,0.686,47.804,-5.077,-11.180,-0.2900,0.0472,-0.0752,-0.9529,6.719,7.677,326.600,12.713,3.343,2.111,0.004,-0.031,0.012,32.502,-14.974,2.111,-0.354,0.042,-0.037,4.74,0.39,2,0
213998,0.018,-0.017,0.726,28.038,17.055,-13.882,-0.2935,0.0448,-0.0823,-0.9514,7.550,7.679,326.219,12.229,3.387,2.111,0.004,-0.031,0.012,26.675,-14.777,2.111,-0.216,-0.166,0.170,4.74,-0.25,2,0
214010,0.010,-0.018,0.769,20.209,24.910,-14.886,-0.2953,0.0462,-0.0848,-0.9505,7.774,7.928,326.017,12.273,2.639,2.111,0.004,-0.031,0.012,25.146,-18.318,2.111,-0.034,-0.290,0.294,4.74,-0.16,2,0
214036,0.000,-0.015,0.840,6.596,31.139,-16.373,-0.2979,0.0500,-0.0868,-0.9493,7.843,8.436,325.729,11.701,2.551,2.111,0.004,-0.031,0.012,21.397,-20.183,2.111,0.155,-0.420,0.423,4.73,-0.16,2,0
214068,-0.008,-0.016,0.923,-12.460,30.326,-18.156,-0.3008,0.0558,-0.0857,-0.9482,7.498,9.051,325.387,9.545,3.035,2.111,0.004,-0.031,0.012,16.326,-21.985,2.111,0.350,-0.554,0.556,4.72,-0.20,2,0
214361,0.008,-0.001,0.806,-21.678,28.003,0.182,-0.3235,0.0174,-0.0824,-0.9425,8.317,4.944,322.475,1.935,1.012,2.111,0.004,-0.031,0.012,-33.335,-13.259,2.111,-0.155,-0.513,-0.347,4.70,0.10,2,0
214387,0.000,-0.006,0.909,-28.454,22.583,0.522,-0.3229,0.0232,-0.0773,-0.9430,7.548,5.376,322.546,0.704,0.440,2.111,0.004,-0.031,0.012,-38.949,-16.693,2.111,0.023,-0.618,-0.388,4.68,-1.02,2,0
214406,-0.009,-0.010,1.002,-30.896,7.325,0.574,-0.3224,0.0278,-0.0695,-0.9436,6.530,5.586,322.587,0.572,0.308,2.111,0.004,-0.031,0.012,-33.691,-18.402,2.111,0.211,-0.360,-0.347,4.66,-0.97,2,0
214433,-0.008,-0.014,1.053,-31.221,-11.071,-0.161,-0.3223,0.0287,-0.0609,-0.9442,5.558,5.361,322.565,0.528,0.176,2.111,0.004,-0.031,0.012,-29.418,-17.970,2.111,0.381,-0.067,-0.219,4.63,-0.92,2,0
214452,-0.005,-0.013,1.056,-34.364,-23.676,-1.655,-0.3226,0.0266,-0.0518,-0.9448,4.649,4.797,322.492,0.352,0.176,2.111,0.004,-0.031,0.012,-24.892,-16.947,2.111,0.504,0.146,-0.018,4.62,-0.86,2,0
214490,-0.008,-0.020,1.038,-30.042,-32.376,-4.704,-0.3238,0.0198,-0.0339,-0.9453,2.942,3.410,322.269,0.308,-0.528,2.111,0.004,-0.031,0.012,-16.070,-14.561,2.111,0.652,0.418,0.306,4.60,-0.73,2,0
214507,-0.012,-0.025,1.049,-22.159,-31.710,-5.914,-0.3244,0.0173,-0.0291,-0.9453,2.516,2.954,322.179,0.308,-0.528,2.111,0.004,-0.031,0.012,-13.460,-12.940,2.111,0.515,0.484,0.385,4.59,-0.25,2,0
214538,-0.013,-0.033,1.020,3.927,-23.702,-7.000,-0.3262,0.0106,-0.0212,-0.9450,1.896,1.944,321.939,0.176,-1.100,2.639,0.004,-0.031,0.012,-10.076,-11.444,2.287,0.119,0.447,0.546,4.59,-0.23,2,0
214561,-0.006,-0.029,0.975,19.365,-13.337,-7.671,-0.3276,0.0070,-0.0204,-0.9446,1.950,1.519,321.773,0.176,-1.232,2.639,0.004,-0.031,0.012,-9.589,-10.107,2.639,-0.086,0.182,0.629,4.58,-0.23,2,0
214589,-0.007,-0.018,0.938,13.261,10.710,-8.280,-0.3299,0.0051,-0.0217,-0.9437,2.156,1.367,321.485,0.176,-1.408,2.639,0.004,-0.031,0.012,-11.037,-9.630,2.639,-0.351,-0.161,0.710,4.57,-0.44,2,0
215109,-0.065,0.029,1.222,-17.652,-0.189,-22.622,-0.3479,0.0331,-0.0118,-0.9369,-0.054,4.025,319.249,0.000,1.935,2.111,0.004,-0.031,0.012,0.075,-10.623,2.111,0.730,0.492,0.477,4.03,-1.14,2,0
215378,-0.089,0.068,1.458,-32.257,-33.207,0.784,-0.3511,0.0442,-0.0340,-0.9347,1.871,6.112,318.922,-0.176,4.443,2.111,0.004,-0.031,0.012,-12.022,-6.443,2.111,0.210,0.426,-0.089,3.65,0.05,2,0
215407,-0.080,0.060,1.296,-43.863,-29.197,-0.500,-0.3509,0.0386,-0.0242,-0.9353,1.040,5.117,318.913,-1.232,2.683,2.287,0.004,-0.031,0.012,-13.861,-7.301,2.287,0.380,0.134,0.146,3.67,0.54,2,0
215429,-0.064,0.058,1.103,-45.038,-15.880,-1.228,-0.3508,0.0354,-0.0144,-0.9357,0.126,4.376,318.900,-1.408,2.111,2.111,0.004,-0.031,0.012,-9.323,-8.195,2.111,0.523,-0.128,0.332,3.68,0.51,2,0
215453,-0.057,0.054,0.990,-38.136,-5.727,-1.157,-0.3508,0.0351,-0.0091,-0.9358,-0.431,4.133,318.888,-1.408,2.111,2.111,0.004,-0.031,0.012,-5.747,-7.115,2.111,0.599,-0.273,0.373,3.69,0.49,2,0
215470,-0.049,0.042,0.884,-21.368,4.464,1.189,-0.3505,0.0359,-0.0057,-0.9359,-0.833,4.081,318.906,-1.760,2.111,2.111,0.004,-0.031,0.012,-5.411,-6.858,2.111,0.397,-0.406,0.203,3.72,0.59,2,0
215492,-0.047,0.036,0.837,2.068,9.596,4.215,-0.3498,0.0366,-0.0066,-0.9361,-0.764,4.195,318.990,-2.243,1.012,2.111,0.004,-0.031,0.012,-5.325,-10.948,2.111,0.074,-0.543,-0.075,3.76,1.63,2,0
215521,-0.041,0.035,0.834,14.931,6.982,6.383,-0.3490,0.0361,-0.0099,-0.9364,-0.387,4.271,319.097,-2.243,0.352,2.111,0.004,-0.031,0.012,-9.533,-13.319,2.111,-0.104,-0.619,-0.229,3.78,1.55,2,0
215530,-0.040,0.030,0.850,21.730,1.093,7.661,-0.3483,0.0346,-0.0130,-0.9367,0.020,4.236,319.207,-1.760,-0.176,2.111,0.004,-0.031,0.012,-11.279,-13.670,2.111,-0.223,-0.558,-0.331,3.80,1.43,2,0
215542,-0.038,0.029,0.869,25.489,-5.520,7.930,-0.3474,0.0320,-0.0164,-0.9370,0.487,4.093,319.328,-1.760,-0.748,2.111,0.004,-0.031,0.012,-11.790,-15.086,2.111,-0.325,-0.355,-0.419,3.81,0.97,2,0
215563,-0.035,0.022,0.900,25.658,-18.952,6.430,-0.3463,0.0259,-0.0206,-0.9375,1.185,3.597,319.490,-1.408,-1.320,2.111,0.004,-0.031,0.012,-13.494,-17.760,2.111,-0.460,-0.085,-0.399,3.83,0.92,2,0
215581,-0.032,0.017,0.905,22.292,-27.265,4.763,-0.3459,0.0216,-0.0216,-0.9378,1.468,3.174,319.549,-1.408,-1.408,2.111,0.004,-0.031,0.012,-15.085,-16.704,2.111,-0.521,0.039,-0.261,3.84,0.92,2,0
215589,-0.035,0.005,0.883,15.051,-34.914,1.784,-0.3456,0.0159,-0.0210,-0.9380,1.630,2.546,319.582,-1.320,-1.408,2.111,0.004,-0.031,0.012,-16.859,-14.336,2.111,-0.577,0.182,-0.073,3.85,0.86,2,0
215608,-0.031,0.003,0.853,9.008,-38.688,-0.761,-0.3457,0.0115,-0.0194,-0.9381,1.632,2.002,319.565,-0.880,-1.408,2.111,0.004,-0.031,0.012,-13.960,-11.377,2.111,-0.376,0.318,0.105,3.86,0.64,2,0
215636,-0.024,0.007,0.748,-7.063,-37.994,-4.901,-0.3467,0.0040,-0.0144,-0.9379,1.390,1.006,319.438,-0.880,-1.408,2.111,0.004,-0.031,0.012,-13.168,-9.081,2.111,-0.080,0.465,0.298,3.88,0.61,2,0
216111,-0.069,-0.025,1.204,12.028,39.458,-1.571,-0.3536,0.0535,0.0215,-0.9336,-4.492,4.854,318.325,-1.408,11.305,2.111,0.004,-0.031,0.012,17.746,22.644,2.111,0.234,-0.713,0.122,4.16,0.24,2,0
216130,-0.070,-0.022,1.268,25.970,28.528,1.559,-0.3538,0.0559,0.0156,-0.9335,-3.954,5.354,318.302,-1.408,11.305,2.111,0.004,-0.031,0.012,14.848,21.084,2.111,0.050,-0.476,-0.046,4.15,-0.32,2,0
216150,-0.072,-0.024,1.329,35.229,13.635,4.117,-0.3536,0.0555,0.0083,-0.9337,-3.156,5.615,318.356,-1.408,11.129,2.111,0.004,-0.031,0.012,10.615,19.641,2.111,-0.159,-0.182,-0.236,4.15,-0.30,2,0
216371,-0.051,-0.041,1.067,-27.186,51.205,-16.959,-0.3661,0.0430,0.0009,-0.9296,-1.903,4.553,316.928,-0.528,14.032,2.111,0.004,-0.031,0.012,6.538,33.750,2.111,0.488,-0.394,0.787,4.29,1.08,2,0
216401,-0.061,-0.033,1.197,-22.239,52.609,-15.854,-0.3689,0.0521,0.0023,-0.9280,-2.456,5.454,316.525,-1.056,14.604,2.111,0.004,-0.031,0.012,6.743,31.405,2.111,0.580,-0.514,0.756,4.29,0.26,2,0
216422,-0.083,-0.024,1.383,-4.913,40.115,-12.449,-0.3722,0.0619,0.0009,-0.9261,-2.748,6.542,316.049,-1.056,14.516,2.111,0.004,-0.031,0.012,9.228,28.472,2.111,0.200,-0.385,0.447,4.29,0.19,2,0
216443,-0.094,-0.017,1.477,6.767,25.779,-9.654,-0.3739,0.0647,-0.0015,-0.9252,-2.609,6.965,315.813,-1.056,14.472,2.111,0.004,-0.031,0.012,9.009,26.813,2.111,-0.019,-0.132,0.184,4.29,-0.22,2,0
216469,-0.099,-0.008,1.543,18.304,-0.038,-6.077,-0.3760,0.0632,-0.0063,-0.9244,-2.074,6.986,315.611,-1.408,13.196,2.111,0.004,-0.031,0.012,6.349,21.801,2.111,-0.246,0.130,-0.090,4.28,-0.21,2,0
216489,-0.094,-0.007,1.535,18.258,-12.044,-5.240,-0.3770,0.0593,-0.0086,-0.9243,-1.661,6.669,315.520,-1.408,12.625,2.111,0.004,-0.031,0.012,1.892,20.479,2.111,-0.384,0.289,-0.243,4.28,-0.21,2,0
216518,-0.088,-0.017,1.454,6.127,-22.128,-5.355,-0.3786,0.0506,-0.0096,-0.9241,-1.180,5.784,315.389,-1.979,11.569,2.111,0.004,-0.031,0.012,-4.217,21.263,2.111,-0.444,0.475,-0.268,4.27,-0.29,2,0
216542,-0.081,-0.012,1.384,-4.813,-21.224,-6.237,-0.3796,0.0453,-0.0075,-0.9240,-1.178,5.134,315.283,-2.375,11.569,2.111,0.004,-0.031,0.012,-6.685,22.254,2.111,-0.194,0.571,-0.087,4.26,-0.27,2,0
216564,-0.080,-0.017,1.303,-13.596,-14.354,-6.830,-0.3801,0.0434,-0.0060,-0.9239,-1.260,4.864,315.225,-3.563,10.381,2.111,0.004,-0.031,0.012,-10.043,18.901,2.111,-0.057,0.500,0.027,4.26,-0.27,2,0
216590,-0.072,-0.034,1.123,-35.539,18.174,-10.559,-0.3827,0.0435,0.0025,-0.9228,-2.177,4.491,314.862,-5.323,10.293,2.111,0.004,-0.031,0.012,-18.234,20.363,2.111,0.294,0.002,0.350,4.30,1.15,2,0
216611,-0.070,-0.043,1.089,-38.929,32.730,-11.321,-0.3843,0.0482,0.0070,-0.9219,-2.871,4.796,314.620,-5.323,10.293,2.111,0.004,-0.031,0.012,-14.735,19.926,2.111,0.423,-0.182,0.469,4.32,1.09,2,0
216641,-0.072,-0.046,1.101,-33.873,41.695,-11.733,-0.3859,0.0549,0.0101,-0.9208,-3.508,5.352,314.356,-5.323,10.293,2.111,0.004,-0.031,0.012,-11.022,17.892,2.111,0.529,-0.331,0.565,4.34,0.99,2,0
216661,-0.084,-0.044,1.170,-18.956,47.437,-10.595,-0.3883,0.0650,0.0111,-0.9192,-4.095,6.365,313.973,-5.323,9.589,2.111,0.004,-0.031,0.012,-6.931,13.822,2.111,0.269,-0.506,0.562,4.35,0.54,2,0
216948,-0.037,-0.044,0.612,-52.561,13.423,-9.340,-0.4108,0.0399,0.0307,-0.9103,-5.093,2.724,311.303,-15.440,5.499,2.111,0.004,-0.031,0.012,-58.616,9.916,2.111,0.365,-0.183,0.292,4.62,1.80,2,0
216964,-0.033,-0.036,0.649,-51.898,29.806,-5.873,-0.4120,0.0489,0.0373,-0.9091,-6.219,3.335,311.064,-18.079,5.103,2.111,0.004,-0.031,0.012,-65.242,7.343,2.111,0.332,-0.371,-0.006,4.67,1.89,2,0
216986,-0.039,-0.030,0.721,-42.467,35.560,-2.004,-0.4123,0.0557,0.0404,-0.9084,-6.868,3.897,310.940,-18.651,5.103,2.111,0.004,-0.031,0.012,-67.104,5.096,2.111,0.110,-0.476,-0.171,4.70,1.79,2,0
217002,-0.049,-0.031,0.821,-29.880,35.062,2.336,-0.4122,0.0614,0.0415,-0.9081,-7.265,4.436,310.888,-19.135,5.147,2.111,0.004,-0.031,0.012,-63.812,2.933,2.111,-0.093,-0.572,-0.323,4.72,1.57,2,0
217019,-0.056,-0.034,0.916,-18.042,29.199,5.121,-0.4118,0.0653,0.0414,-0.9080,-7.436,4.851,310.898,-19.311,5.235,2.111,0.004,-0.031,0.012,-66.010,1.155,2.111,-0.228,-0.550,-0.424,4.73,0.34,2,0
217030,-0.068,-0.042,1.029,-0.330,18.238,8.726,-0.4108,0.0680,0.0395,-0.9083,-7.369,5.228,310.994,-19.839,5.323,2.111,0.004,-0.031,0.012,-68.787,0.691,2.111,-0.316,-0.373,-0.490,4.73,0.34,2,0
217073,-0.074,-0.046,1.145,13.364,0.306,10.094,-0.4092,0.0677,0.0358,-0.9092,-6.953,5.379,311.209,-21.466,5.367,2.111,0.004,-0.031,0.012,-80.988,0.000,2.111,-0.485,-0.035,-0.611,4.74,0.38,2,0
217091,-0.076,-0.053,1.224,11.349,-27.502,5.422,-0.4071,0.0583,0.0304,-0.9110,-5.921,4.669,311.607,-23.798,6.510,2.111,0.004,-0.031,0.012,-90.000,4.088,2.111,-0.627,0.251,-0.315,4.78,0.99,2,0
217122,-0.071,-0.077,1.155,-7.052,-33.387,-2.315,-0.4065,0.0485,0.0308,-0.9118,-5.493,3.632,311.765,-24.370,6.510,2.111,0.004,-0.031,0.012,-90.000,9.224,2.111,-0.718,0.458,0.048,4.80,0.89,2,0
217144,-0.058,-0.089,1.027,-26.061,-25.311,-8.171,-0.4072,0.0436,0.0345,-0.9116,-5.660,2.947,311.717,-24.941,6.378,2.111,0.004,-0.031,0.012,-90.000,11.198,2.111,-0.410,0.531,0.238,4.83,0.93,2,0
217163,-0.049,-0.093,0.927,-44.042,-14.144,-13.593,-0.4084,0.0434,0.0392,-0.9109,-6.148,2.700,311.560,-25.513,6.290,2.111,0.004,-0.031,0.012,-90.000,12.536,2.111,-0.176,0.276,0.365,4.86,1.57,2,0
217687,-0.088,-0.144,1.178,32.862,-9.546,-6.882,-0.4661,0.1585,0.1315,-0.8604,-22.232,8.640,301.403,-22.478,6.642,2.111,0.004,-0.031,0.012,-7.176,-5.464,2.111,-0.413,0.589,-0.322,5.50,1.02,2,0
217938,-0.130,-0.152,1.637,3.261,30.652,-30.609,-0.5244,0.2005,0.0824,-0.8234,-20.902,14.103,292.405,-16.760,9.941,2.111,0.004,-0.031,0.012,9.978,-18.101,2.111,-0.096,-0.122,0.775,5.69,0.69,2,0
217970,-0.114,-0.140,1.511,16.303,0.209,-27.915,-0.5339,0.1983,0.0774,-0.8183,-20.413,14.000,291.227,-10.997,14.164,2.111,0.004,-0.031,0.012,51.929,-3.635,2.111,0.254,0.235,0.597,5.72,0.62,2,0
217993,-0.100,-0.146,1.387,18.444,-8.329,-29.348,-0.5396,0.1930,0.0754,-0.8160,-19.927,13.511,290.660,-11.173,15.044,2.111,0.004,-0.031,0.012,45.231,5.177,2.111,0.355,0.400,0.670,5.74,0.65,2,0
218038,-0.073,-0.140,1.091,34.167,3.838,-28.365,-0.5528,0.1797,0.0683,-0.8108,-18.478,12.462,289.392,-6.202,19.619,2.111,0.004,-0.031,0.012,66.708,24.714,2.111,0.517,0.633,0.805,5.80,1.13,2,0
218053,-0.062,-0.137,1.031,41.223,11.545,-28.144,-0.5567,0.1764,0.0643,-0.8092,-17.920,12.354,288.996,-6.202,19.619,2.111,0.004,-0.031,0.012,64.724,25.095,2.111,0.345,0.480,0.831,5.82,1.13,2,0
218082,-0.045,-0.135,0.957,59.175,30.657,-26.897,-0.5649,0.1708,0.0522,-0.8056,-16.489,12.492,288.108,-6.730,19.663,2.111,0.004,-0.031,0.012,54.276,25.223,2.111,0.014,0.115,0.846,5.87,1.72,2,0
218106,-0.041,-0.132,0.973,69.089,47.954,-25.403,-0.5716,0.1676,0.0385,-0.8023,-15.078,12.999,287.329,-6.378,19.663,2.111,0.004,-0.031,0.012,47.160,24.013,2.111,-0.188,-0.107,0.783,5.91,1.64,2,0
218139,-0.046,-0.124,1.113,73.490,59.999,-24.712,-0.5807,0.1654,0.0165,-0.7969,-13.016,14.153,286.217,-4.927,21.642,2.111,0.004,-0.031,0.012,43.470,27.291,2.111,-0.401,-0.340,0.706,5.96,1.63,2,0
218169,-0.083,-0.106,1.409,73.083,57.382,-26.309,-0.5919,0.1637,-0.0124,-0.7891,-10.436,15.848,284.797,-4.355,22.346,2.111,0.004,-0.031,0.012,34.304,23.553,2.111,-0.583,-0.541,0.796,6.00,1.43,2,0
218182,-0.084,-0.103,1.425,72.280,56.608,-26.208,-0.5925,0.1636,-0.0139,-0.7887,-10.301,15.930,284.725,-4.355,22.346,2.111,0.004,-0.031,0.012,34.304,23.553,2.111,-0.600,-0.560,0.804,6.00,1.43,2,0
218197,-0.105,-0.098,1.558,61.724,46.728,-26.362,-0.5974,0.1622,-0.0259,-0.7849,-9.195,16.588,284.104,-4.267,21.774,2.111,0.004,-0.031,0.012,27.806,20.780,2.111,-0.666,-0.373,0.837,6.02,0.92,2,0
218506,-0.094,-0.134,1.230,55.558,-3.919,-20.390,-0.6479,0.1685,-0.0417,-0.7417,-9.456,17.694,276.253,-11.129,3.695,2.111,0.004,-0.031,0.012,-6.755,-38.241,2.111,-0.501,-0.226,0.442,6.48,0.84,2,0
218530,-0.098,-0.135,1.277,44.597,-26.975,-27.550,-0.6547,0.1557,-0.0456,-0.7383,-8.203,16.839,275.652,-11.129,-1.408,2.111,0.004,-0.031,0.012,-17.536,-58.522,2.111,-0.624,-0.118,0.580,6.50,0.80,2,0
218543,-0.093,-0.131,1.263,34.737,-33.086,-30.527,-0.6579,0.1499,-0.0454,-0.7367,-7.802,16.294,275.350,-11.129,-1.408,2.111,0.004,-0.031,0.012,-17.476,-60.000,2.111,-0.667,0.009,0.628,6.50,0.76,2,0
218558,-0.093,-0.130,1.233,20.949,-36.379,-34.182,-0.6622,0.1427,-0.0434,-0.7343,-7.469,15.491,274.898,-11.129,-1.408,2.111,0.004,-0.031,0.012,-20.017,-59.685,2.111,-0.500,0.157,0.683,6.52,0.82,2,0
218572,-0.089,-0.128,1.202,12.714,-36.713,-36.460,-0.6649,0.1388,-0.0413,-0.7327,-7.375,14.972,274.586,-11.613,-1.408,2.111,0.004,-0.031,0.012,-23.430,-57.878,2.111,-0.356,0.238,0.714,6.54,0.82,2,0
218602,-0.078,-0.122,1.070,-20.263,-29.231,-40.364,-0.6723,0.1318,-0.0322,-0.7277,-7.702,13.600,273.612,-14.164,-1.979,2.111,0.004,-0.031,0.012,-32.314,-52.342,2.111,-0.022,0.141,0.784,6.58,1.54,2,0
218629,-0.065,-0.109,0.878,-44.107,-10.661,-40.407,-0.6798,0.1322,-0.0180,-0.7212,-9.059,12.422,272.397,-14.208,-4.971,2.111,0.004,-0.031,0.012,-29.922,-60.000,2.111,0.261,-0.174,0.844,6.63,1.50,2,0
218658,-0.058,-0.113,0.768,-51.514,5.882,-38.894,-0.6846,0.1371,-0.0081,-0.7158,-10.377,11.969,271.460,-13.504,-5.762,2.111,0.004,-0.031,0.012,-20.060,-60.000,2.111,0.454,-0.390,0.882,6.68,1.67,2,0
218670,-0.058,-0.115,0.719,-43.189,15.281,-36.666,-0.6880,0.1422,-0.0023,-0.7116,-11.336,11.856,270.751,-13.460,-5.850,2.111,0.004,-0.031,0.012,-13.809,-60.000,2.111,0.516,-0.460,0.849,6.70,1.67,2,0
218693,-0.053,-0.111,0.694,-26.179,20.034,-32.846,-0.6921,0.1473,0.0018,-0.7066,-12.176,11.865,269.923,-13.460,-5.982,2.111,0.004,-0.031,0.012,-8.635,-60.000,2.111,0.359,-0.567,0.613,6.75,1.64,2,0
218718,-0.056,-0.112,0.726,-7.127,17.852,-29.985,-0.6954,0.1495,0.0029,-0.7029,-12.511,11.898,269.300,-13.460,-6.026,2.111,0.004,-0.031,0.012,-5.708,-60.000,2.111,0.133,-0.639,0.368,6.78,2.03,2,0
219238,-0.001,-0.139,0.774,37.104,32.408,-22.936,-0.7699,0.0940,0.0506,-0.6292,-12.041,2.314,258.270,-1.100,12.009,2.111,0.004,-0.031,0.012,58.793,34.203,2.111,-0.369,-0.121,0.683,7.38,-0.34,2,0
219509,-0.017,-0.132,1.202,24.055,38.598,-28.091,-0.8088,0.0954,0.0039,-0.5802,-9.189,5.986,250.829,-2.243,16.012,2.111,0.004,-0.031,0.012,38.673,35.565,2.111,-0.388,-0.049,0.662,7.12,-0.86,2,0
219527,-0.020,-0.129,1.227,22.766,47.967,-29.517,-0.8116,0.0949,-0.0018,-0.5764,-8.793,6.451,250.269,-2.155,14.868,2.111,0.004,-0.031,0.012,37.269,34.406,2.111,-0.416,-0.191,0.713,7.09,-0.93,2,0
219559,-0.022,-0.109,1.310,25.085,57.488,-29.183,-0.8175,0.0956,-0.0165,-0.5676,-7.982,7.782,249.003,-1.628,13.196,2.111,0.004,-0.031,0.012,35.159,20.863,2.111,-0.467,-0.426,0.796,7.03,-1.72,2,0
219583,-0.031,-0.101,1.372,24.425,53.197,-27.736,-0.8214,0.0961,-0.0271,-0.5616,-7.404,8.773,248.152,-1.540,13.284,2.111,0.004,-0.031,0.012,32.738,16.535,2.111,-0.464,-0.550,0.804,6.99,-1.67,2,0
219613,-0.042,-0.077,1.476,13.734,40.319,-20.664,-0.8253,0.0962,-0.0382,-0.5551,-6.783,9.780,247.271,-1.452,13.812,2.111,0.004,-0.031,0.012,29.887,13.188,2.111,-0.251,-0.404,0.402,6.93,-1.94,2,0
219631,-0.044,-0.073,1.530,0.818,26.526,-18.125,-0.8270,0.0968,-0.0418,-0.5522,-6.645,10.144,246.870,-2.111,13.900,2.111,0.004,-0.031,0.012,28.004,13.429,2.111,-0.043,-0.171,0.169,6.90,-1.84,2,0
219653,-0.047,-0.066,1.554,-8.466,16.767,-16.055,-0.8280,0.0975,-0.0426,-0.5506,-6.682,10.248,246.646,-2.683,13.900,2.111,0.004,-0.031,0.012,21.928,12.725,2.111,0.131,0.024,-0.026,6.88,-1.73,2,0
219678,-0.046,-0.063,1.582,-23.838,-5.960,-11.801,-0.8296,0.0993,-0.0393,-0.5480,-7.095,10.023,246.273,-3.739,13.900,2.111,0.004,-0.031,0.012,20.816,13.192,2.111,0.304,0.219,-0.220,6.84,-1.47,2,0
219707,-0.044,-0.071,1.563,-20.378,-12.858,-9.544,-0.8312,0.1004,-0.0304,-0.5460,-7.788,9.217,245.972,-4.443,13.328,2.111,0.004,-0.031,0.012,18.160,14.185,2.111,0.516,0.457,-0.437,6.80,-1.33,2,0
219727,-0.050,-0.078,1.553,-13.366,-7.549,-9.166,-0.8320,0.1001,-0.0264,-0.5450,-8.012,8.800,245.835,-4.267,13.328,2.111,0.004,-0.031,0.012,19.963,15.676,2.111,0.501,0.517,-0.443,6.77,-1.27,2,0
219743,-0.052,-0.088,1.545,-5.259,-0.381,-9.728,-0.8328,0.0994,-0.0246,-0.5441,-8.074,8.576,245.707,-4.267,13.284,2.111,0.004,-0.031,0.012,20.838,16.341,2.111,0.320,0.302,-0.325,6.75,-1.23,2,0
220228,-0.052,-0.056,1.600,28.907,52.471,1.806,-0.8793,0.0749,-0.0996,-0.4596,-2.377,14.123,234.896,-10.073,11.789,2.287,0.004,-0.031,0.012,-38.138,-7.555,2.287,-0.735,-0.769,-0.495,6.39,-1.02,2,0
220250,-0.062,-0.047,1.673,15.418,44.204,0.407,-0.8790,0.0746,-0.1048,-0.4591,-2.072,14.639,234.885,-13.372,12.625,2.287,0.004,-0.031,0.012,-57.555,-8.946,2.287,-0.774,-0.506,-0.272,6.37,-1.32,2,0
220442,0.028,-0.114,0.826,-63.911,10.968,-26.705,-0.8867,0.1129,-0.0665,-0.4433,-8.317,12.596,232.207,-15.616,13.460,2.639,0.004,-0.031,0.012,-41.228,2.941,2.639,0.494,0.018,0.794,6.37,0.82,2,0
220467,0.023,-0.104,0.851,-61.959,43.500,-22.960,-0.8879,0.1392,-0.0605,-0.4343,-11.534,13.206,230.796,-17.463,13.680,2.287,0.004,-0.031,0.012,-30.537,1.846,2.287,0.675,-0.348,0.704,6.38,0.35,2,0
220501,-0.002,-0.096,1.023,-44.944,50.885,-16.389,-0.8876,0.1577,-0.0636,-0.4281,-13.461,14.359,229.792,-16.672,12.845,2.287,0.004,-0.031,0.012,-21.865,-4.522,2.287,0.659,-0.537,0.219,6.36,-0.75,2,0
220519,-0.015,-0.097,1.149,-26.957,44.583,-11.794,-0.8874,0.1646,-0.0667,-0.4254,-14.100,14.977,229.357,-15.968,12.757,2.287,0.004,-0.031,0.012,-10.730,-7.306,2.287,0.392,-0.614,0.017,6.35,-0.72,2,0
220548,-0.031,-0.094,1.319,7.952,22.600,-4.083,-0.8878,0.1679,-0.0718,-0.4225,-14.274,15.625,228.931,-10.117,10.029,2.287,0.004,-0.031,0.012,15.908,-16.892,2.287,0.067,-0.264,-0.249,6.33,-0.68,2,0
220566,-0.041,-0.105,1.396,30.447,5.246,-2.114,-0.8886,0.1645,-0.0741,-0.4217,-13.815,15.687,228.858,-9.018,9.370,2.111,0.004,-0.031,0.012,22.723,-22.071,2.111,-0.111,-0.054,-0.374,6.33,-0.61,2,0
220586,-0.039,-0.111,1.417,44.614,-7.624,-2.742,-0.8899,0.1584,-0.0752,-0.4211,-13.107,15.498,228.857,-7.654,9.326,2.111,0.004,-0.031,0.012,24.393,-21.802,2.111,-0.243,0.104,-0.446,6.32,-0.27,2,0
220610,-0.039,-0.119,1.431,51.704,-19.445,-4.839,-0.8920,0.1481,-0.0754,-0.4203,-12.003,15.016,228.873,-4.135,8.666,2.287,0.004,-0.031,0.012,32.813,-20.899,2.287,-0.382,0.268,-0.265,6.32,-0.26,2,0
220650,-0.033,-0.133,1.273,49.364,-23.763,-13.146,-0.8975,0.1235,-0.0724,-0.4172,-9.542,13.477,228.731,0.352,5.806,2.111,0.004,-0.031,0.012,55.071,-26.962,2.111,0.061,0.348,0.189,6.33,0.34,2,0
220663,-0.030,-0.142,1.169,39.552,-18.426,-18.137,-0.8996,0.1159,-0.0709,-0.4151,-8.833,12.931,228.538,0.924,5.674,2.111,0.004,-0.031,0.012,51.959,-25.493,2.111,0.201,0.147,0.310,6.33,0.33,2,0
220686,-0.027,-0.146,1.022,17.182,-4.026,-24.441,-0.9023,0.1096,-0.0688,-0.4112,-8.313,12.373,228.098,2.199,5.674,2.111,0.004,-0.031,0.012,58.021,-23.316,2.111,0.373,-0.100,0.458,6.35,0.42,2,0
220701,-0.025,-0.145,0.974,11.609,2.033,-26.220,-0.9032,0.1086,-0.0682,-0.4095,-8.251,12.252,227.891,2.639,5.674,2.111,0.004,-0.031,0.012,58.021,-23.316,2.111,0.410,-0.153,0.490,6.37,1.38,2,0
220722,-0.022,-0.146,0.890,6.030,14.668,-30.149,-0.9053,0.1078,-0.0679,-0.4052,-8.240,12.142,227.344,4.223,4.795,2.111,0.004,-0.031,0.012,60.001,-22.554,2.111,0.498,-0.279,0.566,6.39,1.38,2,0
220746,-0.022,-0.149,0.830,17.671,29.265,-32.779,-0.9091,0.1077,-0.0710,-0.3960,-8.214,12.382,226.180,7.698,2.683,2.111,0.004,-0.031,0.012,88.109,-33.730,2.111,0.658,-0.509,0.705,6.43,1.24,2,0
220771,-0.022,-0.141,0.870,35.781,27.368,-32.246,-0.9128,0.1044,-0.0768,-0.3873,-7.721,12.769,225.122,9.238,2.551,2.111,0.004,-0.031,0.012,90.000,-34.852,2.111,0.706,-0.615,0.768,6.45,1.07,2,0
221038,0.069,-0.070,0.471,55.533,18.641,-18.210,-0.9436,-0.0309,-0.0674,-0.3227,5.871,6.154,218.081,19.531,0.440,2.111,0.004,-0.031,0.012,77.074,-19.715,2.111,0.275,-0.225,0.061,6.66,1.38,2,0
221060,0.049,-0.078,0.568,34.331,34.645,-17.877,-0.9445,-0.0376,-0.0765,-0.3172,6.912,6.928,217.549,21.246,-0.704,2.111,0.004,-0.031,0.012,79.729,-26.709,2.111,0.516,-0.483,0.246,6.71,1.15,2,0
221082,0.036,-0.079,0.760,44.607,31.858,-16.131,-0.9450,-0.0424,-0.0861,-0.3126,7.768,7.828,217.144,16.276,-0.836,2.111,0.004,-0.031,0.012,66.021,-29.553,2.111,0.429,-0.594,0.232,6.71,0.22,2,0
221121,0.021,-0.077,0.939,48.434,12.586,-16.493,-0.9455,-0.0497,-0.0928,-0.3082,8.787,8.332,216.751,9.589,0.528,2.111,0.004,-0.031,0.012,10.374,-27.328,2.111,0.077,-0.366,0.300,6.72,0.21,2,0
221133,0.015,-0.081,1.013,54.420,-2.731,-17.147,-0.9459,-0.0550,-0.0944,-0.3054,9.409,8.339,216.469,8.490,1.716,2.111,0.004,-0.031,0.012,-4.401,-23.162,2.111,-0.083,-0.162,0.405,6.72,0.20,2,0
221150,0.015,-0.081,1.013,54.420,-2.731,-17.147,-0.9459,-0.0550,-0.0944,-0.3054,9.409,8.339,216.469,8.490,1.716,2.111,0.004,-0.031,0.012,-4.401,-23.162,2.111,-0.083,-0.162,0.405,6.72,0.20,2,0
221171,0.027,-0.073,1.029,63.233,-28.715,-18.385,-0.9473,-0.0723,-0.0926,-0.2979,11.179,7.602,215.661,6.202,3.123,2.111,0.004,-0.031,0.012,-19.071,-18.743,2.111,-0.363,0.192,0.586,6.72,-0.06,2,0
221193,0.032,-0.065,0.992,56.086,-34.395,-19.861,-0.9481,-0.0803,-0.0898,-0.2943,11.927,7.068,215.230,4.223,3.739,2.111,0.004,-0.031,0.012,-36.980,-12.092,2.111,-0.458,0.313,0.648,6.72,-0.06,2,0
221221,0.033,-0.062,0.820,35.027,-28.101,-19.210,-0.9503,-0.0956,-0.0808,-0.2850,13.232,5.685,214.049,0.088,5.147,2.111,0.004,-0.031,0.012,-72.304,-2.619,2.111,-0.645,0.550,0.744,6.72,0.21,2,0
221253,0.033,-0.051,0.680,16.812,-9.252,-16.950,-0.9518,-0.1010,-0.0763,-0.2793,13.635,5.093,213.314,-1.804,5.806,2.111,0.004,-0.031,0.012,-83.364,0.177,2.111,-0.743,0.188,0.555,6.73,0.20,2,0
221282,0.035,-0.049,0.624,1.641,5.287,-14.699,-0.9526,-0.1008,-0.0756,-0.2769,13.584,5.057,213.019,-2.683,5.850,2.111,0.004,-0.031,0.012,-90.000,2.805,2.111,-0.786,-0.009,0.350,6.73,0.17,2,0
221742,-0.037,-0.033,1.427,-35.135,-21.135,-23.522,-0.9706,0.0241,-0.0676,-0.2298,-0.911,8.184,206.579,-10.557,8.534,2.111,0.004,-0.031,0.012,-45.346,-1.150,2.111,0.389,0.421,0.248,6.38,-1.15,2,0
221762,-0.030,-0.024,1.304,-17.026,-16.213,-16.592,-0.9716,0.0273,-0.0614,-0.2270,-1.457,7.569,206.200,-15.088,10.513,2.111,0.004,-0.031,0.012,-70.598,7.282,2.111,0.135,0.527,0.020,6.36,-1.10,2,0
221783,-0.020,-0.026,1.212,0.411,-7.122,-12.354,-0.9723,0.0277,-0.0576,-0.2249,-1.609,7.153,205.947,-16.056,11.085,2.111,0.004,-0.031,0.012,-79.269,12.931,2.111,-0.053,0.548,-0.149,6.34,-0.97,2,0
222033,-0.058,-0.060,1.757,-65.065,-14.047,-14.322,-0.9707,0.0616,-0.0955,-0.2118,-4.639,12.211,204.122,-19.311,11.437,2.287,0.004,-0.031,0.012,-82.343,-3.509,2.287,0.221,0.237,0.540,6.07,-1.19,2,0
222066,-0.046,-0.065,1.625,-66.185,-23.958,-15.854,-0.9712,0.0768,-0.0831,-0.2097,-6.695,11.167,203.717,-19.355,11.569,2.111,0.004,-0.031,0.012,-71.861,0.097,2.111,0.436,0.448,0.667,6.05,-0.42,2,0
222082,-0.043,-0.069,1.565,-65.363,-23.141,-16.059,-0.9713,0.0815,-0.0790,-0.2090,-7.331,10.811,203.592,-19.355,11.569,2.111,0.004,-0.031,0.012,-68.625,1.646,2.111,0.491,0.501,0.699,6.05,-0.42,2,0
222099,-0.033,-0.073,1.402,-59.080,-12.953,-15.695,-0.9714,0.0921,-0.0705,-0.2071,-8.753,10.088,203.293,-19.355,11.657,2.111,0.004,-0.031,0.012,-58.152,5.460,2.111,0.573,0.464,0.745,6.04,-0.28,2,0
222110,-0.032,-0.076,1.321,-53.392,-5.036,-14.790,-0.9714,0.0969,-0.0675,-0.2060,-9.372,9.850,203.140,-19.355,11.657,2.111,0.004,-0.031,0.012,-55.862,6.051,2.111,0.503,0.323,0.726,6.05,-0.28,2,0
222130,-0.027,-0.080,1.180,-40.001,12.564,-12.788,-0.9712,0.1044,-0.0648,-0.2040,-10.304,9.695,202.843,-18.783,11.701,2.111,0.004,-0.031,0.012,-47.759,6.977,2.111,0.189,0.038,0.515,6.06,0.56,2,0
222149,-0.026,-0.081,1.169,-38.679,13.924,-12.754,-0.9712,0.1050,-0.0647,-0.2038,-10.373,9.700,202.814,-17.903,11.701,2.111,0.004,-0.031,0.012,-47.759,6.977,2.111,0.166,0.018,0.493,6.07,0.54,2,0
222164,-0.019,-0.077,1.078,-22.078,29.558,-9.977,-0.9710,0.1094,-0.0661,-0.2018,-10.876,9.931,202.530,-14.736,10.513,2.111,0.004,-0.031,0.012,-39.442,6.622,2.111,-0.048,-0.168,0.229,6.07,0.54,2,0
222189,-0.018,-0.079,1.051,-9.236,38.418,-7.693,-0.9709,0.1111,-0.0688,-0.2004,-11.025,10.264,202.333,-11.349,9.326,2.111,0.004,-0.031,0.012,-6.683,-3.084,2.111,-0.120,-0.278,0.067,6.08,0.55,2,0
222211,-0.031,-0.083,1.140,18.567,47.504,-3.488,-0.9709,0.1093,-0.0832,-0.1963,-10.570,11.800,201.770,-5.499,7.566,2.111,0.004,-0.031,0.012,20.141,-12.008,2.111,0.088,-0.537,-0.316,6.12,0.79,2,0
222229,-0.043,-0.083,1.226,19.023,40.390,-4.087,-0.9710,0.1066,-0.0892,-0.1947,-10.156,12.400,201.576,-3.079,7.566,2.111,0.004,-0.031,0.012,35.812,-16.437,2.111,0.200,-0.614,-0.329,6.11,0.62,2,0
222247,-0.053,-0.084,1.308,21.429,27.878,-4.779,-0.9712,0.1035,-0.0936,-0.1932,-9.733,12.811,201.410,-0.176,6.730,2.111,0.004,-0.031,0.012,52.907,-21.057,2.111,0.333,-0.442,-0.203,6.10,-0.56,2,0
222273,-0.064,-0.095,1.402,25.067,3.902,-7.359,-0.9720,0.0975,-0.0959,-0.1911,-9.027,12.929,201.222,0.308,5.499,2.111,0.004,-0.031,0.012,49.962,-21.711,2.111,0.487,-0.109,0.053,6.09,-0.53,2,0
222301,-0.060,-0.102,1.413,28.805,-11.966,-10.248,-0.9730,0.0923,-0.0945,-0.1894,-8.476,12.637,201.095,4.179,3.695,2.111,0.004,-0.031,0.012,60.760,-28.509,2.111,0.544,0.094,0.227,6.08,-0.50,2,0
223152,-0.015,-0.047,1.035,19.609,-35.402,4.769,-0.9971,-0.0011,-0.0049,-0.0753,0.169,0.547,188.642,0.528,-1.408,2.111,0.004,-0.031,0.012,2.424,-7.780,2.111,-0.471,0.313,-0.227,6.39,-0.46,2,0
223358,-0.016,-0.043,1.040,-2.353,27.594,-16.265,-0.9979,0.0430,-0.0124,-0.0470,-4.855,1.650,185.325,11.789,-1.408,2.111,0.004,-0.031,0.012,90.000,-10.267,2.111,0.800,-0.672,0.362,6.34,-1.16,2,0
223370,-0.019,-0.038,1.097,7.257,19.270,-13.337,-0.9980,0.0416,-0.0145,-0.0454,-4.693,1.875,185.132,11.877,-1.408,2.111,0.004,-0.031,0.012,90.000,-11.038,2.111,0.823,-0.481,0.207,6.33,-1.16,2,0
223383,-0.019,-0.040,1.151,16.535,8.986,-11.811,-0.9981,0.0392,-0.0155,-0.0440,-4.418,1.971,184.974,12.361,-1.408,2.111,0.004,-0.031,0.012,90.000,-11.602,2.111,0.734,-0.312,0.069,6.32,-1.12,2,0
223407,-0.009,-0.028,1.212,29.298,-12.353,-9.337,-0.9985,0.0321,-0.0141,-0.0418,-3.605,1.772,184.736,12.361,-1.408,2.111,0.004,-0.031,0.012,89.614,-11.156,2.111,0.361,-0.029,-0.161,6.29,-1.25,2,0
223422,-0.005,-0.028,1.215,31.587,-17.593,-9.255,-0.9986,0.0299,-0.0131,-0.0413,-3.363,1.637,184.688,12.273,-1.408,2.111,0.004,-0.031,0.012,89.614,-11.156,2.111,0.307,0.011,-0.194,6.28,-1.25,2,0
223450,0.010,-0.025,1.138,45.018,-34.308,-6.937,-0.9991,0.0144,-0.0025,-0.0390,-1.641,0.349,184.468,10.953,-1.408,2.111,0.004,-0.031,0.012,71.464,-6.718,2.111,-0.090,0.313,-0.409,6.25,-0.98,2,0
223467,0.017,-0.024,1.059,46.808,-35.141,-6.653,-0.9992,0.0069,0.0045,-0.0380,-0.809,-0.483,184.360,11.437,-1.408,2.111,0.004,-0.031,0.012,68.827,-3.521,2.111,-0.256,0.439,-0.361,6.25,-0.82,2,0
223486,0.028,-0.021,0.988,44.102,-30.915,-6.311,-0.9993,0.0016,0.0099,-0.0372,-0.229,-1.124,184.264,12.009,-1.408,2.111,0.004,-0.031,0.012,69.902,-2.052,2.111,-0.252,0.522,-0.311,6.25,0.24,2,0
223503,0.027,-0.023,0.883,38.979,-21.167,-7.547,-0.9992,-0.0039,0.0147,-0.0361,0.383,-1.702,184.130,12.009,-1.408,2.111,0.004,-0.031,0.012,65.853,0.532,2.111,-0.024,0.390,-0.142,6.26,0.23,2,0
223520,0.028,-0.022,0.853,36.429,-16.169,-8.209,-0.9992,-0.0057,0.0160,-0.0356,0.591,-1.852,184.067,11.921,-1.408,2.111,0.004,-0.031,0.012,64.604,1.168,2.111,0.056,0.282,-0.053,6.26,0.23,2,0
223542,0.021,-0.028,0.808,26.485,7.141,-11.132,-0.9992,-0.0111,0.0168,-0.0332,1.210,-1.969,183.785,11.305,-1.408,2.111,0.004,-0.031,0.012,56.910,2.104,2.111,0.303,-0.053,0.222,6.26,0.11,2,0
223559,0.022,-0.030,0.820,13.683,21.594,-14.092,-0.9993,-0.0123,0.0143,-0.0313,1.357,-1.679,183.565,11.305,-1.408,2.111,0.004,-0.031,0.012,55.566,1.099,2.111,0.419,-0.210,0.351,6.26,0.11,2,0
223578,0.021,-0.027,0.856,5.434,29.722,-15.470,-0.9994,-0.0119,0.0110,-0.0295,1.322,-1.303,183.368,11.305,-1.408,2.111,0.004,-0.031,0.012,55.551,0.432,2.111,0.495,-0.315,0.437,6.27,0.11,2,0
223604,0.011,-0.021,0.970,0.049,37.477,-16.903,-0.9996,-0.0088,0.0016,-0.0250,1.003,-0.210,182.866,9.018,-1.408,2.111,0.004,-0.031,0.012,50.996,-2.925,2.111,0.627,-0.494,0.584,6.22,-1.34,2,0
223620,0.010,-0.017,0.998,0.067,36.837,-17.028,-0.9997,-0.0082,-0.0002,-0.0241,0.936,-0.000,182.768,8.402,-1.408,2.111,0.004,-0.031,0.012,44.758,-4.175,2.111,0.639,-0.533,0.616,6.22,-1.34,2,0
223636,-0.002,-0.013,1.096,3.327,29.187,-15.880,-0.9997,-0.0064,-0.0055,-0.0213,0.745,0.613,182.445,7.918,-1.408,2.111,0.004,-0.031,0.012,41.995,-6.479,2.111,0.553,-0.612,0.652,6.19,-1.27,2,0
223661,-0.011,-0.011,1.213,16.854,6.400,-13.339,-0.9998,-0.0063,-0.0091,-0.0175,0.743,1.026,182.008,7.918,-1.408,2.111,0.004,-0.031,0.012,40.259,-8.409,2.111,0.172,-0.196,0.428,6.14,-1.69,2,0
224068,0.010,-0.023,1.061,28.837,27.365,-6.819,-1.0000,-0.0065,-0.0015,-0.0048,0.740,0.172,180.550,0.308,-1.408,2.111,0.004,-0.031,0.012,-1.018,-4.436,2.111,-0.212,-0.599,0.097,6.01,-0.64,2,0
224082,0.021,0.019,0.729,-16.310,-35.845,-22.111,-0.9992,-0.0042,0.0282,0.0268,0.568,-3.217,176.908,1.144,-1.408,2.111,0.004,-0.031,0.012,-2.637,5.572,2.111,0.686,0.668,0.592,5.86,0.02,2,0
224098,0.022,0.029,0.620,-9.109,-22.716,-16.240,-0.9990,-0.0032,0.0329,0.0313,0.486,-3.758,176.398,0.572,-1.408,2.111,0.004,-0.031,0.012,0.986,8.106,2.111,0.694,0.300,0.232,5.87,0.08,2,0
224117,0.023,0.033,0.560,-0.226,-9.332,-10.683,-0.9988,-0.0042,0.0344,0.0334,0.617,-3.926,176.148,0.528,-1.408,2.111,0.004,-0.031,0.012,-0.135,8.767,2.111,0.413,0.084,0.027,5.88,0.70,2,0
224131,0.030,0.036,0.532,5.570,1.937,-6.245,-0.9988,-0.0059,0.0345,0.0345,0.819,-3.925,176.021,0.528,-1.408,2.111,0.004,-0.031,0.012,-1.090,8.858,2.111,0.226,-0.059,-0.108,5.89,0.70,2,0
224150,0.037,0.042,0.530,17.906,16.237,-0.321,-0.9988,-0.0102,0.0327,0.0350,1.298,-3.699,175.948,0.352,-1.408,2.111,0.004,-0.031,0.012,-4.331,8.304,2.111,0.002,-0.231,-0.271,5.90,0.66,2,0
224164,0.040,0.044,0.544,21.139,21.039,1.484,-0.9988,-0.0124,0.0315,0.0349,1.549,-3.557,175.953,0.352,-1.408,2.111,0.004,-0.031,0.012,-6.321,7.634,2.111,-0.076,-0.291,-0.328,5.90,0.45,2,0
224372,-0.003,-0.007,0.971,-29.881,-15.301,-3.051,-0.9991,-0.0272,0.0241,0.0230,3.187,-2.684,177.288,-3.783,-0.176,2.111,0.004,-0.031,0.012,-29.118,6.104,2.111,0.124,0.554,0.304,5.63,-0.90,2,0
224389,-0.002,-0.007,0.948,-35.343,-8.381,-4.346,-0.9992,-0.0228,0.0244,0.0235,2.685,-2.730,177.241,-4.971,0.352,2.111,0.004,-0.031,0.012,-42.256,10.735,2.111,0.284,0.270,0.431,5.61,-0.92,2,0
224418,0.002,-0.014,0.909,-43.405,19.951,-7.473,-0.9994,-0.0074,0.0195,0.0258,0.908,-2.210,177.023,-7.874,0.528,2.111,0.004,-0.031,0.012,-43.547,9.931,2.111,0.464,-0.062,0.580,5.59,-0.87,2,0
224443,-0.006,-0.022,0.965,-30.240,38.084,-5.758,-0.9996,0.0040,0.0088,0.0277,-0.425,-1.023,176.827,-12.801,2.463,2.111,0.004,-0.031,0.012,-69.952,10.330,2.111,0.094,-0.335,0.531,5.56,-0.96,2,0
224462,-0.014,-0.021,1.049,-17.376,43.487,-3.434,-0.9995,0.0086,-0.0004,0.0286,-0.990,0.013,176.722,-14.780,3.167,2.111,0.004,-0.031,0.012,-77.218,11.327,2.111,-0.069,-0.434,0.342,5.54,-0.91,2,0
224484,-0.022,-0.018,1.152,-3.847,41.568,-1.161,-0.9995,0.0095,-0.0095,0.0290,-1.119,1.061,176.662,-16.760,4.311,2.111,0.004,-0.031,0.012,-87.158,11.936,2.111,-0.240,-0.538,0.097,5.52,-0.97,2,0
224507,-0.038,-0.014,1.307,4.535,26.764,2.289,-0.9994,0.0065,-0.0170,0.0289,-0.801,1.929,176.670,-18.299,4.927,2.111,0.004,-0.031,0.012,-90.000,10.513,2.111,-0.427,-0.284,-0.173,5.47,-1.80,2,0
224527,-0.046,-0.009,1.377,7.003,13.312,3.738,-0.9994,0.0045,-0.0184,0.0285,-0.577,2.098,176.719,-18.783,4.927,2.111,0.004,-0.031,0.012,-90.000,9.933,2.111,-0.512,-0.092,-0.297,5.44,-1.71,2,0
224548,-0.046,-0.009,1.377,7.003,13.312,3.738,-0.9994,0.0045,-0.0184,0.0285,-0.577,2.098,176.719,-18.783,4.927,2.111,0.004,-0.031,0.012,-90.000,9.933,2.111,-0.512,-0.092,-0.297,5.44,-1.71,2,0
224573,-0.044,-0.007,1.416,-1.775,-20.263,2.965,-0.9995,0.0020,-0.0148,0.0271,-0.275,1.694,176.891,-20.015,5.806,2.287,0.004,-0.031,0.012,-90.000,13.547,2.287,-0.700,0.328,-0.331,5.36,-1.57,2,0
224593,-0.040,-0.008,1.368,-21.758,-24.519,1.206,-0.9996,0.0033,-0.0122,0.0267,-0.417,1.388,176.935,-20.411,6.378,2.111,0.004,-0.031,0.012,-90.000,16.649,2.287,-0.491,0.451,-0.113,5.33,-1.63,2,0
224612,-0.029,-0.013,1.285,-39.388,-19.345,-0.074,-0.9996,0.0081,-0.0097,0.0265,-0.962,1.087,176.955,-20.411,6.906,2.111,0.004,-0.031,0.012,-90.000,17.960,2.111,-0.194,0.560,0.092,5.30,-1.55,2,0
224631,-0.019,-0.022,1.203,-49.091,-9.772,-1.561,-0.9995,0.0137,-0.0083,0.0265,-1.593,0.914,176.952,-20.894,7.082,2.111,0.004,-0.031,0.012,-90.000,21.138,2.111,0.004,0.413,0.238,5.29,-1.37,2,0
224661,-0.002,-0.026,1.093,-58.775,14.214,-2.756,-0.9993,0.0251,-0.0087,0.0270,-2.905,0.919,176.883,-21.466,7.786,2.111,0.004,-0.031,0.012,-90.000,23.601,2.111,0.265,0.043,0.438,5.29,-0.31,2,0
224683,0.003,-0.034,1.061,-59.905,32.497,-3.735,-0.9989,0.0355,-0.0128,0.0277,-4.113,1.353,176.770,-21.554,8.270,2.287,0.004,-0.031,0.012,-90.000,24.744,2.287,0.236,-0.164,0.545,5.27,-0.33,2,0
225110,-0.097,-0.111,1.943,29.496,7.187,-13.478,-0.9886,0.0959,-0.1119,0.0307,-11.613,12.434,175.170,-8.710,21.510,2.287,0.004,-0.031,0.012,13.778,31.315,2.287,-0.437,0.163,0.831,4.85,-0.77,2,0
225124,-0.097,-0.111,1.943,29.496,7.187,-13.478,-0.9886,0.0959,-0.1119,0.0307,-11.613,12.434,175.170,-8.710,21.510,2.287,0.004,-0.031,0.012,13.778,31.315,2.287,-0.437,0.163,0.831,4.85,-0.77,2,0
225150,-0.086,-0.102,1.861,29.237,-7.845,-14.715,-0.9897,0.0862,-0.1082,0.0356,-10.504,12.012,174.774,-9.150,18.563,2.287,0.004,-0.031,0.012,8.292,26.505,2.111,-0.601,0.406,0.880,4.84,-0.55,2,0
225171,-0.068,-0.087,1.743,8.108,-3.993,-14.750,-0.9906,0.0804,-0.1038,0.0395,-9.838,11.496,174.438,-8.666,16.100,2.287,0.004,-0.031,0.012,6.567,20.648,2.287,-0.384,0.289,0.901,4.86,0.73,2,0
225188,-0.062,-0.080,1.689,-4.063,2.181,-14.092,-0.9907,0.0798,-0.1027,0.0410,-9.776,11.356,174.283,-8.710,15.528,2.287,0.004,-0.031,0.012,6.092,16.346,2.287,-0.226,0.142,0.877,4.87,0.70,2,0
225406,-0.035,-0.149,1.565,73.402,-32.816,-5.196,-0.9888,0.0748,-0.1196,0.0494,-9.441,13.244,173.182,-13.856,7.918,2.111,0.004,-0.031,0.012,-23.394,-18.736,2.111,-0.351,0.384,-0.114,5.04,2.09,2,0
225422,-0.028,-0.157,1.444,71.503,-33.252,-10.417,-0.9902,0.0648,-0.1129,0.0514,-8.240,12.530,173.147,-13.944,7.918,2.111,0.004,-0.031,0.012,-28.941,-17.027,2.111,-0.448,0.476,0.052,5.07,1.99,2,0
225431,-0.027,-0.160,1.382,68.608,-31.967,-13.214,-0.9908,0.0601,-0.1096,0.0527,-7.681,12.171,173.089,-13.988,7.918,2.111,0.004,-0.031,0.012,-32.157,-15.767,2.111,-0.491,0.516,0.126,5.09,1.99,2,0
225449,-0.020,-0.165,1.245,54.050,-24.984,-20.469,-0.9918,0.0513,-0.1027,0.0563,-6.639,11.419,172.837,-14.076,7.918,2.111,0.004,-0.031,0.012,-39.344,-12.750,2.111,-0.575,0.460,0.271,5.12,1.89,2,0
225477,-0.014,-0.162,1.050,32.170,-5.829,-28.584,-0.9925,0.0427,-0.0955,0.0635,-5.657,10.611,172.154,-14.076,7.434,2.111,0.004,-0.031,0.012,-46.445,-11.071,2.111,-0.676,0.101,0.451,5.18,2.12,2,0
225508,-0.006,-0.158,0.917,9.968,19.294,-37.020,-0.9921,0.0391,-0.0940,0.0730,-5.322,10.421,171.101,-15.088,7.258,2.111,0.004,-0.031,0.012,-51.009,-10.978,2.111,-0.620,-0.187,0.594,5.24,2.02,2,0
225522,-0.008,-0.153,0.908,4.080,24.194,-37.648,-0.9919,0.0391,-0.0946,0.0751,-5.358,10.472,170.855,-15.088,7.258,2.111,0.004,-0.031,0.012,-51.009,-10.978,2.111,-0.525,-0.235,0.618,5.25,1.85,2,0
225539,0.000,-0.136,0.909,-16.898,38.287,-38.660,-0.9906,0.0421,-0.0994,0.0842,-5.852,10.942,169.726,-15.792,7.258,2.287,0.004,-0.031,0.012,-55.171,-12.645,2.111,-0.173,-0.412,0.706,5.28,1.18,2,0
225549,-0.005,-0.137,0.923,-24.857,41.172,-38.622,-0.9899,0.0443,-0.1019,0.0875,-6.180,11.187,169.297,-15.792,7.258,2.287,0.004,-0.031,0.012,-53.806,-13.322,2.287,-0.082,-0.457,0.729,5.29,1.18,2,0
225573,-0.011,-0.116,1.047,-44.379,42.919,-36.802,-0.9881,0.0524,-0.1089,0.0951,-7.293,11.839,168.250,-16.320,7.258,2.111,0.004,-0.031,0.012,-51.991,-15.195,2.111,0.168,-0.583,0.790,5.32,1.12,2,0
225591,-0.024,-0.101,1.147,-52.030,35.926,-32.133,-0.9867,0.0597,-0.1137,0.1000,-8.275,12.267,167.538,-16.891,6.730,2.111,0.004,-0.031,0.012,-49.114,-18.842,2.111,0.292,-0.645,0.612,5.33,1.02,2,0
225617,-0.034,-0.094,1.241,-50.558,21.357,-26.838,-0.9852,0.0683,-0.1173,0.1043,-9.381,12.531,166.882,-17.375,6.158,2.111,0.004,-0.031,0.012,-45.808,-20.348,2.111,0.433,-0.424,0.291,5.34,0.54,2,0
225636,-0.039,-0.090,1.280,-45.744,8.036,-23.624,-0.9844,0.0746,-0.1183,0.1071,-10.156,12.528,166.460,-18.079,6.158,2.111,0.004,-0.031,0.012,-44.191,-22.239,2.111,0.444,-0.187,0.076,5.35,0.54,2,0
225651,-0.034,-0.079,1.282,-38.501,-13.580,-19.286,-0.9836,0.0829,-0.1160,0.1105,-11.134,12.113,165.999,-19.707,5.455,2.111,0.004,-0.031,0.012,-45.151,-23.719,2.111,0.156,0.049,-0.138,5.37,0.60,2,0
225669,-0.029,-0.076,1.232,-27.594,-23.085,-17.256,-0.9834,0.0878,-0.1118,0.1125,-11.650,11.546,165.766,-20.191,5.367,2.111,0.004,-0.031,0.012,-47.477,-22.009,2.111,-0.036,0.207,-0.282,5.40,1.28,2,0
225703,-0.026,-0.078,1.078,-1.821,-30.034,-11.542,-0.9839,0.0914,-0.1008,0.1156,-11.911,10.214,165.535,-20.762,5.323,2.111,0.004,-0.031,0.012,-48.866,-18.165,2.111,-0.316,0.438,-0.490,5.44,1.16,2,0
226150,-0.024,-0.100,0.757,22.821,22.289,-16.034,-0.9672,0.1419,-0.1053,0.1826,-18.462,8.736,157.200,-19.487,6.510,2.111,0.004,-0.031,0.012,-8.379,-8.031,2.111,-0.649,-0.381,0.386,6.30,2.38,2,0
226164,-0.023,-0.096,0.748,17.210,29.080,-17.536,-0.9669,0.1367,-0.1074,0.1866,-17.958,9.013,156.732,-18.651,6.510,2.111,0.004,-0.031,0.012,-3.296,-8.301,2.111,-0.647,-0.494,0.499,6.35,2.26,2,0
226181,-0.026,-0.094,0.779,7.406,29.197,-18.106,-0.9664,0.1332,-0.1100,0.1902,-17.661,9.315,156.282,-18.079,6.422,2.111,0.004,-0.031,0.012,-1.873,-9.442,2.111,-0.373,-0.578,0.582,6.38,2.12,2,0
226203,-0.029,-0.088,0.848,-7.723,23.231,-18.837,-0.9655,0.1313,-0.1129,0.1944,-17.563,9.613,155.742,-16.496,6.422,2.111,0.004,-0.031,0.012,-0.211,-11.055,2.111,-0.100,-0.649,0.665,6.43,2.02,2,0
226422,-0.024,-0.114,0.726,34.505,-6.589,-9.526,-0.9650,0.1321,-0.0819,0.2111,-16.926,5.876,154.452,-14.208,6.510,2.111,0.004,-0.031,0.012,16.057,2.013,2.111,-0.615,0.283,0.252,6.79,2.48,2,0
226438,-0.026,-0.123,0.667,31.912,18.099,-13.326,-0.9660,0.1183,-0.0784,0.2161,-15.290,5.758,154.010,-13.944,3.167,2.111,0.004,-0.031,0.012,7.925,-6.687,2.111,-0.737,-0.126,0.486,6.87,2.18,2,0
226452,-0.026,-0.123,0.667,31.912,18.099,-13.326,-0.9660,0.1183,-0.0784,0.2161,-15.290,5.758,154.010,-13.944,3.167,2.111,0.004,-0.031,0.012,7.925,-6.687,2.111,-0.737,-0.126,0.486,6.87,2.18,2,0
226478,-0.027,-0.126,0.681,10.058,34.272,-17.207,-0.9656,0.1111,-0.0809,0.2207,-14.580,6.148,153.461,-12.889,1.056,2.111,0.004,-0.031,0.012,9.537,-15.383,2.111,-0.446,-0.328,0.605,6.90,1.50,2,0
226502,-0.039,-0.119,0.836,-29.788,48.313,-18.829,-0.9623,0.1102,-0.0947,0.2297,-14.944,7.562,152.157,-11.349,-1.408,2.111,0.004,-0.031,0.012,19.794,-31.054,2.111,0.091,-0.578,0.752,6.95,1.05,2,0
226528,-0.054,-0.114,0.974,-35.262,39.731,-16.961,-0.9601,0.1137,-0.1033,0.2338,-15.630,8.345,151.482,-12.449,-1.408,2.111,0.004,-0.031,0.012,19.963,-33.422,2.111,0.315,-0.682,0.666,6.98,0.99,2,0
226543,-0.063,-0.107,1.064,-30.100,27.872,-14.088,-0.9585,0.1167,-0.1086,0.2365,-16.162,8.802,151.030,-13.021,-1.408,2.111,0.004,-0.031,0.012,16.439,-35.081,2.111,0.417,-0.499,0.434,7.00,0.95,2,0
226566,-0.067,-0.105,1.110,-21.825,15.434,-12.427,-0.9575,0.1185,-0.1111,0.2382,-16.459,8.989,150.757,-13.021,-1.408,2.111,0.004,-0.031,0.012,18.852,-36.181,2.111,0.332,-0.276,0.220,7.01,0.87,2,0
226583,-0.075,-0.104,1.166,-5.472,-4.582,-9.194,-0.9569,0.1194,-0.1109,0.2402,-16.575,8.904,150.516,-12.449,-4.223,2.111,0.004,-0.031,0.012,23.116,-40.649,2.111,0.045,-0.001,-0.043,7.02,0.62,2,0
226602,-0.075,-0.109,1.159,3.621,-14.348,-8.516,-0.9570,0.1188,-0.1084,0.2413,-16.434,8.635,150.451,-13.021,-4.707,2.111,0.004,-0.031,0.012,19.370,-45.150,2.111,-0.111,0.148,-0.177,7.03,0.59,2,0
226622,-0.077,-0.114,1.138,11.370,-21.197,-9.173,-0.9573,0.1175,-0.1051,0.2422,-16.187,8.295,150.426,-13.109,-4.795,2.111,0.004,-0.031,0.012,18.581,-46.091,2.111,-0.228,0.261,-0.184,7.05,0.63,2,0
226642,-0.074,-0.119,1.075,19.256,-26.039,-10.186,-0.9580,0.1145,-0.0989,0.2436,-15.660,7.687,150.403,-14.164,-4.795,2.111,0.004,-0.031,0.012,15.558,-44.444,2.111,-0.369,0.396,-0.009,7.07,0.63,2,0
226663,-0.066,-0.120,0.979,21.243,-22.929,-11.748,-0.9589,0.1091,-0.0899,0.2460,-14.789,6.819,150.334,-16.320,-3.519,2.111,0.004,-0.031,0.012,-0.864,-39.162,2.111,-0.525,0.544,0.239,7.10,1.19,2,0
226681,-0.065,-0.121,0.931,15.600,-14.600,-14.166,-0.9592,0.1059,-0.0852,0.2479,-14.295,6.374,150.214,-16.891,-2.815,2.111,0.004,-0.031,0.012,-13.950,-32.374,2.111,-0.604,0.329,0.365,7.13,1.29,2,0
226702,-0.062,-0.121,0.883,8.910,-0.754,-16.975,-0.9591,0.1020,-0.0813,0.2512,-13.763,6.013,149.918,-18.079,-1.628,2.111,0.004,-0.031,0.012,-23.245,-26.863,2.111,-0.689,0.043,0.502,7.19,2.64,2,0
226726,-0.058,-0.120,0.885,-3.032,16.445,-19.709,-0.9584,0.0997,-0.0812,0.2549,-13.525,6.018,149.500,-18.079,-1.452,2.111,0.004,-0.031,0.012,-25.025,-26.516,2.111,-0.640,-0.182,0.609,7.25,2.51,2,0
227190,-0.060,-0.172,1.154,-23.909,-13.526,-33.065,-0.9318,0.0768,-0.0920,0.3427,-11.986,6.828,138.895,-12.185,-1.408,2.287,0.004,-0.031,0.012,-1.301,-28.921,2.287,0.326,0.092,0.943,7.55,0.10,2,0
227236,-0.033,-0.167,0.988,-24.787,-17.782,-33.038,-0.9275,0.0880,-0.0843,0.3534,-12.934,5.409,137.667,18.563,-1.408,2.111,0.004,-0.031,0.012,90.000,-23.967,2.111,0.568,0.418,0.963,7.58,0.93,2,0
227410,-0.029,-0.169,0.913,-10.200,-12.503,-32.491,-0.9253,0.0921,-0.0804,0.3589,-13.236,4.744,137.050,20.587,-1.408,2.111,0.004,-0.031,0.012,90.000,-21.654,2.111,0.654,0.336,0.971,7.60,0.89,2,0
227428,-0.019,-0.137,1.178,47.984,36.242,-29.713,-0.9092,0.0340,-0.0741,0.4082,-7.069,6.144,131.263,14.472,-1.408,2.111,0.004,-0.031,0.012,90.000,-25.903,2.111,0.496,-0.724,0.918,7.61,-0.65,2,0
227449,-0.024,-0.135,1.262,43.956,17.001,-30.032,-0.9066,0.0244,-0.0728,0.4149,-6.047,6.412,130.475,-0.044,1.408,2.111,0.004,-0.031,0.012,65.272,-22.784,2.111,0.487,-0.356,0.935,7.59,-0.62,2,0
227479,-0.018,-0.134,1.268,46.852,-10.565,-31.033,-0.9028,0.0143,-0.0643,0.4249,-4.643,5.971,129.355,-12.801,3.343,2.639,0.004,-0.031,0.012,-21.928,-6.729,2.639,0.034,0.057,0.955,7.57,-0.47,2,0
227511,-0.015,-0.136,1.216,57.352,-20.823,-31.893,-0.9004,0.0080,-0.0547,0.4316,-3.555,5.258,128.618,-19.003,3.387,2.639,0.004,-0.031,0.012,-76.541,-7.393,2.639,-0.189,0.260,0.965,7.56,-0.45,2,0
227550,-0.010,-0.136,1.065,52.154,-20.875,-34.100,-0.8950,-0.0038,-0.0350,0.4446,-1.401,3.784,127.126,-21.818,9.018,2.639,0.004,-0.031,0.012,-90.000,17.698,2.639,-0.480,0.526,0.977,7.58,0.69,2,0
227586,-0.009,-0.132,0.964,45.369,-6.162,-34.896,-0.8910,-0.0103,-0.0263,0.4532,-0.315,3.225,126.074,-24.809,15.044,2.639,0.004,-0.031,0.012,-90.000,36.881,2.639,-0.624,0.657,0.984,7.60,0.60,2,0
227607,-0.012,-0.126,0.922,36.797,13.292,-34.733,-0.8872,-0.0162,-0.0234,0.4604,0.416,3.241,125.156,-25.205,18.035,2.639,0.004,-0.031,0.012,-90.000,44.383,2.639,-0.710,0.529,0.987,7.61,0.31,2,0
227621,-0.013,-0.117,0.913,24.761,26.079,-34.009,-0.8849,-0.0196,-0.0243,0.4648,0.696,3.517,124.599,-25.337,20.103,2.815,0.004,-0.031,0.012,-90.000,54.017,2.639,-0.749,0.352,0.989,7.61,0.30,2,0
227653,-0.013,-0.105,0.980,-5.631,51.139,-33.148,-0.8801,-0.0236,-0.0334,0.4730,0.567,4.653,123.511,-25.161,23.358,2.815,0.004,-0.031,0.012,-90.000,59.350,2.815,-0.433,-0.041,0.992,7.60,0.16,2,0
227671,-0.017,-0.102,1.066,-24.659,62.625,-31.159,-0.8774,-0.0237,-0.0426,0.4772,0.054,5.586,122.925,-25.777,25.469,2.815,0.004,-0.031,0.012,-90.000,60.000,2.815,-0.195,-0.201,0.931,7.58,-0.93,2,0
227700,-0.024,-0.100,1.152,-38.427,69.932,-28.622,-0.8752,-0.0225,-0.0526,0.4804,-0.644,6.527,122.431,-26.393,28.416,2.815,0.004,-0.031,0.012,-90.000,60.000,2.815,-0.016,-0.320,0.751,7.57,-0.88,2,0
227718,-0.035,-0.095,1.318,-54.173,72.737,-23.020,-0.8711,-0.0177,-0.0738,0.4852,-2.367,8.382,121.588,-26.921,31.935,4.927,0.004,-0.031,0.012,-90.000,60.000,4.927,0.249,-0.498,0.407,7.54,-0.92,2,0
227740,-0.050,-0.090,1.407,-55.526,68.729,-19.738,-0.8691,-0.0146,-0.0850,0.4871,-3.340,9.321,121.186,-27.449,32.023,4.927,0.004,-0.031,0.012,-90.000,60.000,4.927,0.309,-0.505,0.198,7.51,-0.92,2,0
228036,-0.087,-0.133,1.641,-57.598,49.045,-27.720,-0.8419,-0.0017,-0.1447,0.5198,-8.758,14.211,115.526,-32.903,27.977,2.815,0.004,-0.031,0.012,-90.000,45.956,2.815,0.142,-0.402,0.816,7.32,-0.46,2,0
228058,-0.096,-0.120,1.745,-59.751,32.904,-24.646,-0.8384,0.0047,-0.1551,0.5225,-10.126,14.778,114.816,-31.364,28.680,2.815,0.004,-0.031,0.012,-90.000,45.909,2.815,0.179,-0.123,0.660,7.30,-0.48,2,0
228082,-0.099,-0.110,1.783,-58.750,7.999,-19.892,-0.8345,0.0171,-0.1655,0.5253,-12.095,14.960,114.023,-30.660,29.384,2.815,0.004,-0.031,0.012,-90.000,49.352,2.815,-0.097,0.171,0.254,7.28,-0.77,2,0
228113,-0.090,-0.104,1.708,-48.799,-6.010,-16.238,-0.8324,0.0277,-0.1692,0.5269,-13.416,14.624,113.607,-30.088,29.560,2.815,0.004,-0.031,0.012,-87.497,50.905,2.815,-0.306,0.362,-0.036,7.27,-0.68,2,0
228131,-0.083,-0.109,1.603,-34.692,-9.398,-14.763,-0.8312,0.0354,-0.1699,0.5282,-14.231,14.180,113.355,-29.604,29.560,2.815,0.004,-0.031,0.012,-83.370,52.903,2.815,-0.444,0.489,-0.211,7.26,-0.18,2,0
228163,-0.066,-0.118,1.410,-19.286,1.372,-12.648,-0.8296,0.0421,-0.1694,0.5303,-14.879,13.678,113.033,-29.032,28.900,2.815,0.004,-0.031,0.012,-74.440,53.004,2.815,-0.598,0.495,-0.331,7.26,-0.12,2,0
228183,-0.056,-0.123,1.293,-20.776,14.751,-12.799,-0.8283,0.0443,-0.1706,0.5318,-15.199,13.617,112.770,-28.944,28.900,2.815,0.004,-0.031,0.012,-72.922,53.104,2.815,-0.671,0.222,-0.207,7.27,0.23,2,0
228210,-0.048,-0.126,1.212,-24.966,29.062,-12.932,-0.8265,0.0458,-0.1740,0.5334,-15.610,13.818,112.425,-28.900,28.900,3.519,0.004,-0.031,0.012,-70.282,52.713,2.815,-0.731,-0.002,-0.039,7.27,0.22,2,0
228241,-0.034,-0.131,1.193,-31.025,48.207,-14.219,-0.8227,0.0466,-0.1837,0.5359,-16.424,14.614,111.726,-28.900,29.032,5.455,0.004,-0.031,0.012,-66.187,51.033,5.455,-0.667,-0.263,0.232,7.29,0.27,2,0
228726,-0.014,-0.191,0.752,39.037,-13.109,-30.272,-0.7546,0.0415,-0.2090,0.6207,-19.506,15.301,98.477,-9.370,25.953,2.639,0.004,-0.031,0.012,47.676,36.878,2.639,-0.284,0.649,0.992,7.56,0.49,2,0
228750,-0.013,-0.194,0.694,33.706,-5.345,-31.807,-0.7524,0.0400,-0.2034,0.6253,-18.989,14.834,98.051,-1.760,23.270,2.639,0.004,-0.031,0.012,71.898,33.638,2.287,-0.092,0.403,0.993,7.58,0.61,2,0
229002,-0.039,-0.157,1.424,73.306,-16.103,-34.002,-0.6958,-0.0297,-0.1762,0.6956,-12.281,16.656,88.209,0.308,28.680,2.287,0.004,-0.031,0.012,65.689,41.570,2.287,-0.282,0.287,0.978,7.62,-0.45,2,0
229026,-0.025,-0.153,1.342,69.915,-21.756,-36.209,-0.6903,-0.0359,-0.1584,0.7051,-10.403,15.623,87.350,-2.463,25.469,2.639,0.004,-0.031,0.012,46.603,34.183,2.639,-0.459,0.463,0.983,7.61,-0.43,2,0
229044,-0.008,-0.149,1.202,57.844,-13.149,-37.277,-0.6832,-0.0411,-0.1402,0.7154,-8.586,14.500,86.269,-7.258,30.088,2.639,0.004,-0.031,0.012,10.155,52.358,2.639,-0.608,0.611,0.988,7.60,-0.38,2,0
229073,-0.005,-0.140,1.071,39.580,9.271,-38.024,-0.6748,-0.0466,-0.1277,0.7254,-7.242,13.886,84.974,-7.654,34.619,2.639,0.004,-0.031,0.012,-11.617,60.000,2.287,-0.717,0.549,0.991,7.59,-0.34,2,0
229098,-0.006,-0.132,1.037,28.367,26.502,-37.922,-0.6693,-0.0507,-0.1247,0.7307,-6.767,13.944,84.152,-2.947,34.619,2.639,0.004,-0.031,0.012,16.326,60.000,2.639,-0.475,0.240,0.993,7.59,-0.11,2,0
229121,-0.003,-0.128,1.041,15.778,41.771,-36.945,-0.6642,-0.0549,-0.1251,0.7349,-6.575,14.296,83.386,-2.463,34.619,2.639,0.004,-0.031,0.012,21.223,60.000,2.639,-0.229,0.034,0.994,7.59,-0.10,2,0
229147,-0.002,-0.123,1.174,-15.398,66.412,-32.255,-0.6541,-0.0638,-0.1353,0.7415,-6.991,15.756,81.866,-3.915,34.619,2.639,0.004,-0.031,0.012,18.935,60.000,2.639,0.145,-0.281,0.802,7.58,-0.10,2,0
229182,-0.012,-0.114,1.306,-28.717,73.331,-27.385,-0.6473,-0.0698,-0.1483,0.7444,-7.840,17.212,80.836,-5.147,34.135,2.639,0.004,-0.031,0.012,14.804,60.000,2.639,0.343,-0.447,0.400,7.58,-0.16,2,0
229207,-0.041,-0.110,1.514,-31.036,66.203,-21.736,-0.6395,-0.0765,-0.1669,0.7466,-9.220,19.135,79.607,-7.170,32.947,2.639,0.004,-0.031,0.012,9.925,48.569,2.639,0.534,-0.608,-0.003,7.56,-0.23,2,0
229232,-0.060,-0.117,1.630,-18.892,50.653,-17.730,-0.6353,-0.0800,-0.1763,0.7476,-9.927,20.094,78.955,-9.238,32.947,2.815,0.004,-0.031,0.012,2.980,45.349,2.815,0.295,-0.347,-0.202,7.54,-1.00,2,0
229253,-0.066,-0.118,1.701,0.710,27.944,-14.465,-0.6318,-0.0831,-0.1812,0.7491,-10.247,20.702,78.414,-11.965,33.695,2.815,0.004,-0.031,0.012,-5.721,45.693,2.815,0.017,-0.057,-0.374,7.52,-0.95,2,0
229543,-0.040,-0.123,1.461,-37.630,29.767,-33.792,-0.5612,-0.0999,-0.1946,0.7982,-12.387,22.208,67.783,-15.440,29.384,2.639,0.004,-0.031,0.012,-17.662,27.454,2.639,0.565,-0.368,0.414,7.50,-0.50,2,0
229572,-0.044,-0.116,1.490,-32.074,9.242,-30.431,-0.5565,-0.0968,-0.2008,0.8004,-13.346,22.236,66.991,-15.440,29.384,2.639,0.004,-0.031,0.012,-12.169,24.808,2.639,0.561,-0.118,0.155,7.49,-0.48,2,0
229588,-0.041,-0.114,1.455,-25.563,-5.436,-27.411,-0.5535,-0.0925,-0.2037,0.8022,-13.999,21.959,66.480,-16.496,29.252,2.815,0.004,-0.031,0.012,-12.285,25.613,2.815,0.452,0.123,-0.093,7.49,-0.37,2,0
229621,-0.026,-0.126,1.304,4.015,-19.420,-23.914,-0.5484,-0.0832,-0.2018,0.8072,-14.536,20.832,65.703,-17.595,26.569,2.815,0.004,-0.031,0.012,-12.649,24.837,2.815,0.030,0.378,-0.275,7.50,0.34,2,0
229647,-0.012,-0.123,1.180,29.619,-18.402,-21.596,-0.5455,-0.0801,-0.1956,0.8110,-14.167,20.081,65.337,-18.079,25.337,2.639,0.004,-0.031,0.012,-19.102,17.406,2.639,-0.176,0.384,-0.289,7.51,0.38,2,0
229669,-0.001,-0.135,1.021,42.326,-10.016,-21.795,-0.5417,-0.0797,-0.1854,0.8160,-13.252,19.324,64.893,-18.739,24.106,2.639,0.004,-0.031,0.012,-27.660,16.326,2.639,-0.366,0.075,-0.172,7.54,0.80,2,0
229687,0.006,-0.139,0.920,41.311,-0.931,-22.421,-0.5389,-0.0807,-0.1795,0.8191,-12.652,19.000,64.559,-18.651,24.106,2.639,0.004,-0.031,0.012,-31.174,17.806,2.639,-0.471,-0.103,0.023,7.55,0.76,2,0
229713,0.007,-0.153,0.835,47.340,14.067,-23.802,-0.5336,-0.0846,-0.1708,0.8240,-11.649,18.765,63.922,-18.255,23.534,2.815,0.004,-0.031,0.012,-35.180,18.556,2.815,-0.585,-0.296,0.233,7.56,0.72,2,0
229730,0.010,-0.155,0.833,41.347,20.512,-26.291,-0.5307,-0.0873,-0.1676,0.8262,-11.225,18.789,63.567,-18.255,23.534,2.639,0.004,-0.031,0.012,-35.591,16.615,2.639,-0.633,-0.377,0.321,7.58,0.72,2,0
229759,0.009,-0.153,0.836,-3.965,26.285,-36.033,-0.5208,-0.0924,-0.1657,0.8323,-10.950,19.050,62.229,-17.111,21.026,2.639,0.004,-0.031,0.012,-33.133,7.007,2.639,-0.328,-0.567,0.528,7.61,0.98,2,0
230322,0.034,-0.061,0.998,-39.345,0.108,-18.278,-0.4113,-0.0007,-0.1517,0.8988,-15.926,7.240,48.168,-9.282,33.343,2.287,0.004,-0.031,0.012,32.495,60.000,2.287,0.792,0.228,0.195,7.52,-0.85,2,0
230551,0.043,-0.112,1.141,-1.351,5.114,-30.098,-0.3768,-0.0503,-0.1168,0.9175,-10.329,10.391,43.716,-13.724,34.619,2.815,0.004,-0.031,0.012,-17.231,60.000,2.815,-0.493,0.681,0.678,7.21,-1.52,2,0
230578,0.050,-0.111,1.027,-39.084,20.868,-34.287,-0.3700,-0.0484,-0.1210,0.9199,-10.941,10.285,42.833,-13.724,34.619,2.815,0.004,-0.031,0.012,-14.915,60.000,2.815,-0.148,0.318,0.752,7.18,-1.01,2,0
230591,0.055,-0.105,0.946,-74.881,35.522,-37.322,-0.3652,-0.0474,-0.1291,0.9207,-11.921,10.463,42.178,-13.724,34.619,2.815,0.004,-0.031,0.012,-12.337,60.000,2.815,0.003,0.144,0.785,7.16,-1.01,2,0
230618,0.070,-0.099,0.864,-97.776,51.872,-37.993,-0.3587,-0.0466,-0.1455,0.9209,-13.822,10.960,41.235,-13.856,34.619,2.815,0.004,-0.031,0.012,-3.700,60.000,2.815,0.202,-0.084,0.828,7.15,-0.96,2,0
230630,0.072,-0.088,0.841,-96.931,61.947,-32.835,-0.3535,-0.0474,-0.1600,0.9204,-15.453,11.562,40.452,-14.296,34.619,2.815,0.004,-0.031,0.012,3.891,60.000,2.815,0.321,-0.220,0.768,7.13,-0.95,2,0
230660,0.072,-0.091,0.878,-81.784,68.521,-25.724,-0.3466,-0.0508,-0.1810,0.9190,-17.746,12.643,39.343,-14.780,34.619,2.815,0.004,-0.031,0.012,11.607,60.000,2.815,0.467,-0.388,0.388,7.10,-1.20,2,0
230676,0.056,-0.087,1.024,-48.211,69.603,-17.884,-0.3415,-0.0566,-0.1941,0.9179,-19.085,13.674,38.503,-14.868,34.619,2.815,0.004,-0.031,0.012,19.361,60.000,2.815,0.336,-0.500,0.134,7.08,-1.14,2,0
230691,0.024,-0.073,1.248,-20.877,65.272,-11.953,-0.3376,-0.0634,-0.2011,0.9174,-19.693,14.603,37.865,-14.912,34.619,2.639,0.004,-0.031,0.012,23.684,60.000,2.639,0.114,-0.476,-0.055,7.04,-1.21,2,0
230730,-0.027,-0.052,1.679,19.113,22.301,0.200,-0.3329,-0.0762,-0.2030,0.9177,-19.554,15.960,37.107,-14.912,34.135,2.815,0.004,-0.031,0.012,24.255,60.000,2.639,-0.256,0.015,-0.369,6.95,-2.10,2,0
230743,-0.031,-0.055,1.722,30.513,8.232,1.392,-0.3325,-0.0781,-0.1999,0.9184,-19.144,16.041,37.087,-15.440,33.475,2.815,0.004,-0.031,0.012,22.627,60.000,2.815,-0.341,0.127,-0.441,6.92,-2.07,2,0
230771,-0.023,-0.057,1.660,41.899,-10.996,2.295,-0.3327,-0.0792,-0.1889,0.9205,-17.855,15.754,37.250,-15.572,32.243,2.639,0.004,-0.031,0.012,13.265,57.211,2.639,-0.504,0.342,-0.579,6.85,-2.61,2,0
230790,-0.007,-0.062,1.491,29.355,-15.011,1.556,-0.3330,-0.0784,-0.1807,0.9221,-16.939,15.363,37.414,-15.704,31.584,2.639,0.004,-0.031,0.012,8.250,58.479,2.639,-0.594,0.463,-0.540,6.81,-2.48,2,0
230818,0.013,-0.069,1.259,20.904,-14.850,-0.843,-0.3333,-0.0765,-0.1741,0.9234,-16.262,14.911,37.554,-15.704,31.672,2.639,0.004,-0.031,0.012,3.377,58.030,2.639,-0.637,0.561,-0.306,6.76,-2.36,2,0
230832,0.033,-0.069,1.073,9.208,-4.684,-2.760,-0.3332,-0.0750,-0.1707,0.9242,-15.926,14.615,37.596,-15.704,32.243,2.639,0.004,-0.031,0.012,1.304,60.000,2.639,-0.398,0.531,-0.111,6.75,-2.07,2,0
231290,0.007,-0.191,1.748,128.205,-22.979,-19.334,-0.2852,-0.1365,-0.1421,0.9380,-11.559,19.705,31.814,-15.088,31.364,2.287,0.004,-0.031,0.012,-13.476,42.368,2.287,-0.608,0.533,0.296,6.24,-1.98,2,0
231318,-0.005,-0.103,1.882,8.689,61.827,-30.170,-0.2079,-0.1811,-0.1118,0.9547,-8.644,23.096,22.801,-14.340,31.232,2.287,0.004,-0.031,0.012,-28.402,28.390,2.287,-0.193,-0.748,0.121,5.87,-2.08,2,0
231333,-0.028,-0.090,2.036,29.354,37.972,-23.920,-0.2001,-0.1901,-0.1100,0.9548,-8.432,24.015,21.878,-15.264,31.891,2.287,0.004,-0.031,0.012,-33.140,27.599,2.287,-0.379,-0.362,-0.138,5.80,-2.06,2,0
231549,0.053,-0.107,0.908,-31.200,42.356,-26.799,-0.1696,-0.1641,-0.1634,0.9579,-16.083,21.699,16.979,-17.551,29.252,2.287,0.004,-0.031,0.012,-6.223,36.805,2.639,0.294,-0.140,0.704,5.57,-0.88,2,0
231572,0.046,-0.100,0.952,1.047,54.130,-25.494,-0.1632,-0.1706,-0.1683,0.9570,-16.755,22.429,16.004,-17.595,26.437,2.111,0.004,-0.031,0.012,-1.253,14.080,2.111,0.015,-0.325,0.756,5.55,-0.84,2,0
231588,0.037,-0.093,1.032,24.149,58.395,-23.751,-0.1562,-0.1791,-0.1670,0.9569,-16.677,23.262,15.086,-17.595,26.437,2.111,0.004,-0.031,0.012,-4.432,11.619,2.111,-0.187,-0.459,0.688,5.53,-0.86,2,0
231607,0.029,-0.080,1.105,30.961,55.804,-22.430,-0.1504,-0.1866,-0.1637,0.9570,-16.354,23.973,14.368,-18.079,24.985,2.111,0.004,-0.031,0.012,-8.571,3.799,2.111,-0.322,-0.549,0.553,5.50,-1.33,2,0
231630,0.017,-0.064,1.186,22.810,46.421,-21.077,-0.1456,-0.1922,-0.1612,0.9570,-16.109,24.513,13.785,-18.651,23.534,2.111,0.004,-0.031,0.012,-9.442,2.528,2.111,-0.423,-0.616,0.467,5.48,-1.27,2,0
231650,0.001,-0.041,1.302,11.793,25.517,-19.034,-0.1392,-0.1981,-0.1579,0.9573,-15.830,25.041,13.011,-18.739,22.478,2.287,0.004,-0.031,0.012,-14.256,-6.483,2.287,-0.503,-0.389,0.290,5.45,-1.25,2,0
231670,-0.006,-0.042,1.324,-2.485,6.160,-17.716,-0.1357,-0.1987,-0.1574,0.9578,-15.862,25.050,12.582,-18.783,21.950,2.287,0.004,-0.031,0.012,-15.066,-10.914,2.287,-0.228,-0.135,0.192,5.42,-1.56,2,0
231691,-0.004,-0.038,1.285,-13.787,-13.756,-14.576,-0.1332,-0.1956,-0.1585,0.9586,-16.077,24.658,12.290,-18.783,20.674,2.287,0.004,-0.031,0.012,-14.322,-14.415,2.287,0.016,0.091,0.023,5.39,-1.48,2,0
231716,-0.001,-0.033,1.247,-16.987,-21.161,-13.852,-0.1325,-0.1924,-0.1594,0.9592,-16.237,24.294,12.211,-18.783,18.431,2.287,0.004,-0.031,0.012,-13.553,-13.299,2.287,0.129,0.195,-0.090,5.36,-1.41,2,0
231750,-0.008,-0.033,1.261,-43.311,-20.326,-15.726,-0.1310,-0.1775,-0.1692,0.9606,-17.567,22.660,11.982,-19.487,12.009,2.111,0.004,-0.031,0.012,-11.454,-34.638,2.111,0.463,0.074,0.050,5.34,-0.43,2,0
231780,-0.024,-0.040,1.302,-45.219,-8.569,-17.656,-0.1297,-0.1696,-0.1799,0.9602,-18.960,21.860,11.686,-19.003,9.545,2.111,0.004,-0.031,0.012,-1.670,-41.614,2.111,0.604,-0.207,0.298,5.32,-0.47,2,0
231798,-0.036,-0.047,1.309,-28.712,0.088,-17.384,-0.1281,-0.1667,-0.1847,0.9600,-19.595,21.550,11.437,-19.003,8.270,2.111,0.004,-0.031,0.012,2.583,-46.548,2.111,0.564,-0.339,0.415,5.30,-1.19,2,0
231828,-0.058,-0.059,1.384,23.398,8.638,-13.792,-0.1249,-0.1657,-0.1845,0.9607,-19.652,21.371,11.076,-19.003,4.047,2.111,0.004,-0.031,0.012,4.172,-55.493,2.287,0.227,-0.481,0.300,5.27,-1.13,2,0
231847,-0.070,-0.057,1.518,87.607,8.540,-9.256,-0.1203,-0.1672,-0.1718,0.9633,-18.184,21.318,10.790,-19.487,3.959,2.287,0.004,-0.031,0.012,-6.135,-60.000,2.287,-0.037,-0.593,0.020,5.24,-1.14,2,0
232118,0.043,0.031,0.602,64.866,2.157,4.064,-0.0730,-0.0968,-0.0550,0.9911,-5.561,11.536,7.859,-16.848,8.842,2.287,0.004,-0.031,0.012,-60.123,-11.498,2.287,-0.171,-0.337,-0.424,5.17,0.64,2,0
232143,0.049,0.031,0.620,53.558,-10.860,4.723,-0.0728,-0.0941,-0.0369,0.9922,-3.476,11.079,8.052,-14.736,7.082,2.111,0.004,-0.031,0.012,-59.473,-14.459,2.111,-0.400,0.032,-0.583,5.16,-0.13,2,0
232172,0.051,0.025,0.624,43.112,-22.149,3.206,-0.0729,-0.0884,-0.0234,0.9931,-1.959,10.306,8.219,-14.076,7.214,2.111,0.004,-0.031,0.012,-67.955,-11.731,2.111,-0.548,0.271,-0.524,5.15,-0.17,2,0
232190,0.053,0.011,0.592,35.397,-25.010,-0.054,-0.0726,-0.0828,-0.0159,0.9938,-1.135,9.606,8.265,-14.076,7.258,2.111,0.004,-0.031,0.012,-70.226,-9.064,2.111,-0.631,0.404,-0.251,5.14,-0.50,2,0
232213,0.048,0.001,0.518,18.153,-23.993,-3.360,-0.0719,-0.0763,-0.0101,0.9944,-0.529,8.813,8.234,-13.988,7.258,2.111,0.004,-0.031,0.012,-73.488,-6.393,2.111,-0.704,0.523,-0.002,5.13,-0.48,2,0
232233,0.055,-0.009,0.441,2.921,-18.327,-6.744,-0.0711,-0.0718,-0.0086,0.9948,-0.403,8.287,8.152,-13.504,7.258,2.111,0.004,-0.031,0.012,-72.443,-4.000,2.111,-0.485,0.485,0.165,5.13,-0.45,2,0
232260,0.056,-0.014,0.365,-8.209,-3.712,-9.150,-0.0696,-0.0676,-0.0093,0.9952,-0.527,7.809,7.964,-13.504,6.730,2.111,0.004,-0.031,0.012,-72.204,-3.935,2.111,-0.214,0.213,0.317,5.14,-0.31,2,0
232282,0.064,-0.031,0.320,-26.405,18.239,-11.479,-0.0674,-0.0663,-0.0142,0.9954,-1.116,7.696,7.667,-13.372,6.202,2.111,0.004,-0.031,0.012,-69.108,-5.109,2.111,0.085,-0.086,0.486,5.16,0.75,2,0
232303,0.067,-0.030,0.367,-31.084,34.980,-11.601,-0.0651,-0.0693,-0.0215,0.9952,-1.951,8.092,7.348,-13.240,6.906,2.111,0.004,-0.031,0.012,-63.925,-3.666,2.111,0.282,-0.283,0.593,5.17,0.65,2,0
232318,0.067,-0.030,0.367,-31.084,34.980,-11.601,-0.0651,-0.0693,-0.0215,0.9952,-1.951,8.092,7.348,-13.240,6.906,2.111,0.004,-0.031,0.012,-63.925,-3.666,2.111,0.282,-0.283,0.593,5.17,0.65,2,0
