timestamp,accel_x,accel_y,accel_z,gyro_x,gyro_y,gyro_z,quat_w,quat_x,quat_y,quat_z,roll,pitch,yaw,att_sp_roll,att_sp_pitch,att_sp_yaw,rate_sp_roll,rate_sp_pitch,rate_sp_yaw,att_cmd_roll,att_cmd_pitch,att_cmd_yaw,rate_cmd_roll,rate_cmd_pitch,rate_cmd_yaw,altitude,climb_rate,flight_state,flight_mode
24052,0.076,0.004,1.012,0.076,-1.947,0.145,0.9956,0.0051,-0.0372,0.0862,0.215,-4.303,189.891,0.215,-1.564,2.111,0.000,0.000,0.000,0.000,9.554,2.111,-0.060,0.976,0.098,-0.19,0.53,1,0
24096,0.083,0.004,1.013,0.096,-0.226,0.081,0.9954,0.0054,-0.0405,0.0863,0.216,-4.676,189.903,0.215,-1.564,2.111,0.000,0.000,0.000,0.000,10.748,2.111,0.005,0.556,0.154,-0.24,0.06,1,0
24110,0.083,0.004,1.013,0.019,-0.122,0.136,0.9954,0.0057,-0.0405,0.0863,0.247,-4.683,189.902,0.215,-1.564,2.111,0.000,0.000,0.000,0.063,10.933,2.111,0.003,0.556,0.148,-0.24,0.06,1,0
24124,0.083,0.004,1.013,0.137,0.102,0.206,0.9954,0.0054,-0.0403,0.0864,0.222,-4.653,189.907,0.215,-1.564,2.111,0.000,0.000,0.000,-0.100,10.853,2.111,-0.011,0.535,0.129,-0.24,0.05,1,0
24144,0.083,0.004,1.013,0.107,0.231,-0.193,0.9954,0.0054,-0.0407,0.0864,0.214,-4.701,189.907,0.215,-1.564,1.760,0.000,0.000,0.000,0.244,10.936,1.760,0.000,0.486,0.141,-0.23,0.08,1,0
24166,0.084,0.004,1.012,0.010,0.143,-0.024,0.9954,0.0054,-0.0410,0.0863,0.213,-4.741,189.906,0.215,-1.564,1.408,0.000,0.000,0.000,0.000,10.949,1.760,0.013,0.482,0.126,-0.23,0.32,1,0
24195,0.084,0.002,1.012,0.128,0.695,-0.460,0.9954,0.0048,-0.0411,0.0863,0.139,-4.739,189.910,0.215,-1.564,2.111,0.000,0.000,0.000,0.445,11.078,1.760,0.010,0.427,0.114,-0.22,0.25,1,0
24214,0.084,0.005,1.012,0.122,0.777,0.076,0.9954,0.0059,-0.0411,0.0862,0.267,-4.749,189.893,0.215,-1.564,2.111,0.000,0.000,0.000,-0.226,11.061,1.760,0.023,0.407,0.111,-0.23,-0.14,1,0
24227,0.084,0.005,1.012,0.145,0.831,0.220,0.9954,0.0057,-0.0409,0.0863,0.252,-4.727,189.896,0.215,-1.564,2.111,0.000,0.000,0.000,-0.251,11.122,2.111,0.013,0.403,0.092,-0.23,-0.14,1,0
24251,0.084,0.004,1.012,-0.085,1.000,0.176,0.9954,0.0057,-0.0411,0.0863,0.240,-4.752,189.904,0.215,-1.564,2.111,0.000,0.000,0.000,-0.089,11.062,2.111,0.011,0.369,0.092,-0.23,-0.13,1,0
24272,0.084,0.005,1.012,0.040,0.839,0.248,0.9954,0.0058,-0.0410,0.0864,0.252,-4.735,189.906,0.108,-1.564,2.111,0.000,0.000,0.000,-0.220,11.063,2.111,0.006,0.388,0.105,-0.23,-0.13,1,0
24294,0.084,0.004,1.012,-0.061,1.019,0.202,0.9954,0.0055,-0.0409,0.0864,0.228,-4.725,189.912,0.108,-1.564,2.111,0.000,0.000,0.000,-0.200,11.036,2.111,-0.018,0.393,0.108,-0.24,-0.14,1,0
24314,0.084,0.004,1.012,0.100,1.090,-0.067,0.9954,0.0053,-0.0409,0.0864,0.198,-4.720,189.916,0.215,-1.564,2.111,0.000,0.000,0.000,0.000,11.015,2.111,0.012,0.376,0.135,-0.24,-0.13,1,0
24327,0.084,0.004,1.012,0.045,1.110,-0.081,0.9954,0.0056,-0.0410,0.0864,0.231,-4.735,189.912,0.215,-1.564,2.111,0.000,0.000,0.000,0.050,11.048,2.111,0.019,0.383,0.144,-0.24,-0.13,1,0
24346,0.083,0.004,1.012,0.137,1.305,-0.093,0.9954,0.0053,-0.0407,0.0864,0.202,-4.696,189.913,0.215,-1.564,2.111,0.000,0.000,0.000,0.000,11.013,2.111,0.013,0.371,0.146,-0.24,-0.11,1,0
24360,0.083,0.004,1.012,0.294,1.122,-0.293,0.9954,0.0055,-0.0406,0.0864,0.222,-4.696,189.909,0.215,-1.564,2.111,0.000,0.000,0.000,0.000,10.970,2.111,0.002,0.372,0.157,-0.24,0.04,1,0
24376,0.083,0.005,1.012,0.131,0.963,-0.098,0.9954,0.0061,-0.0408,0.0863,0.291,-4.716,189.900,0.215,-1.564,2.111,0.000,0.000,0.000,-0.163,10.974,2.111,-0.009,0.398,0.154,-0.24,0.04,1,0
24402,0.083,0.005,1.012,0.130,1.112,0.095,0.9954,0.0058,-0.0403,0.0863,0.269,-4.662,189.904,0.215,-1.564,2.111,0.000,0.000,0.000,-0.269,10.816,2.111,-0.026,0.399,0.111,-0.24,0.04,1,0
24420,0.083,0.005,1.013,-0.077,0.869,0.147,0.9954,0.0060,-0.0404,0.0864,0.283,-4.669,189.906,0.215,-1.564,2.111,0.000,0.000,0.000,-0.314,10.776,2.111,-0.018,0.400,0.099,-0.24,0.08,1,0
24440,0.082,0.005,1.013,-0.027,0.613,0.161,0.9954,0.0060,-0.0401,0.0864,0.287,-4.639,189.909,0.215,-1.564,2.111,0.000,0.000,0.000,-0.274,10.753,2.111,-0.022,0.446,0.090,-0.23,0.07,1,0
24453,0.082,0.005,1.013,-0.028,0.658,0.150,0.9954,0.0059,-0.0403,0.0864,0.272,-4.656,189.913,0.215,-1.564,2.111,0.000,0.000,0.000,-0.290,10.712,2.111,-0.017,0.450,0.091,-0.23,0.06,1,0
24472,0.082,0.004,1.012,0.220,0.447,-0.025,0.9954,0.0057,-0.0401,0.0864,0.250,-4.630,189.914,0.215,-1.564,2.111,0.000,0.000,0.000,-0.070,10.725,2.111,-0.015,0.470,0.108,-0.23,-0.01,1,0
24494,0.082,0.004,1.013,0.066,0.639,-0.160,0.9954,0.0055,-0.0398,0.0864,0.231,-4.594,189.914,0.215,-1.564,2.111,0.000,0.000,0.000,0.000,10.672,2.111,-0.011,0.453,0.128,-0.23,-0.01,1,0
24516,0.082,0.004,1.013,0.147,0.617,0.007,0.9954,0.0055,-0.0399,0.0864,0.228,-4.615,189.913,0.215,-1.564,2.111,0.000,0.000,0.000,-0.220,10.631,2.111,-0.012,0.428,0.125,-0.24,-0.03,1,0
24934,0.083,0.004,1.013,0.119,-0.380,-0.026,0.9954,0.0055,-0.0404,0.0865,0.230,-4.672,189.918,0.215,-1.564,2.111,0.000,0.000,0.000,-0.094,10.841,2.111,0.000,0.543,0.107,-0.39,-0.03,1,0
24974,0.083,0.004,1.012,0.071,-0.108,0.161,0.9954,0.0054,-0.0405,0.0865,0.211,-4.673,189.921,0.108,-1.564,2.111,0.000,0.000,0.000,-0.578,10.857,2.111,-0.079,0.513,0.093,-0.40,-0.03,1,0
24998,0.083,0.003,1.012,-0.102,-0.090,0.127,0.9954,0.0051,-0.0404,0.0865,0.180,-4.659,189.927,0.108,-1.564,2.111,0.000,0.000,0.000,-0.385,10.797,2.111,-0.062,0.502,0.080,-0.40,-0.11,1,0
25015,0.083,0.004,1.013,-0.020,-0.131,0.028,0.9954,0.0054,-0.0404,0.0865,0.217,-4.664,189.926,0.108,-1.564,2.111,0.000,0.000,0.000,-0.503,10.869,2.111,-0.051,0.504,0.089,-0.40,-0.10,1,0
25034,0.083,0.004,1.012,0.026,-0.077,-0.130,0.9954,0.0053,-0.0406,0.0865,0.207,-4.693,189.926,0.108,-1.564,2.111,0.000,0.000,0.000,-0.680,10.910,2.111,-0.059,0.506,0.107,-0.40,-0.04,1,0
25054,0.083,0.005,1.012,0.136,0.148,-0.214,0.9954,0.0058,-0.0405,0.0865,0.257,-4.682,189.918,0.108,-1.564,2.111,0.000,0.000,0.000,-0.870,10.965,2.111,-0.085,0.503,0.131,-0.39,0.45,1,0
25067,0.083,0.005,1.012,0.293,0.359,-0.039,0.9954,0.0061,-0.0407,0.0864,0.291,-4.710,189.915,0.108,-1.564,2.111,0.000,0.000,0.000,-0.844,11.027,2.111,-0.098,0.491,0.126,-0.38,0.45,1,0
25084,0.083,0.005,1.012,0.144,0.502,0.060,0.9954,0.0059,-0.0406,0.0865,0.267,-4.693,189.917,0.108,-1.564,2.111,0.000,0.000,0.000,-0.790,10.874,2.111,-0.102,0.457,0.109,-0.38,0.42,1,0
25102,0.083,0.004,1.012,0.024,0.438,0.150,0.9954,0.0055,-0.0405,0.0865,0.224,-4.674,189.923,0.108,-1.564,2.111,0.000,0.000,0.000,-0.830,10.979,2.111,-0.091,0.457,0.092,-0.37,0.40,1,0
25114,0.083,0.004,1.013,-0.134,0.315,0.158,0.9954,0.0056,-0.0406,0.0865,0.236,-4.691,189.924,0.108,-1.564,2.111,0.000,0.000,0.000,-0.621,10.957,2.111,-0.072,0.475,0.085,-0.37,0.36,1,0
25135,0.083,0.004,1.013,-0.006,0.368,-0.033,0.9954,0.0056,-0.0405,0.0865,0.233,-4.676,189.926,0.108,-1.564,2.111,0.000,0.000,0.000,-0.530,10.852,2.111,-0.065,0.481,0.096,-0.36,0.13,1,0
25160,0.083,0.005,1.013,-0.031,0.452,0.058,0.9954,0.0058,-0.0404,0.0865,0.263,-4.675,189.923,0.108,-1.564,2.111,0.000,0.000,0.000,-0.909,10.944,2.111,-0.076,0.480,0.106,-0.36,0.13,1,0
25182,0.083,0.004,1.013,0.099,0.512,0.070,0.9954,0.0057,-0.0407,0.0865,0.250,-4.701,189.926,0.108,-1.564,2.111,0.000,0.000,0.000,-0.853,10.926,2.111,-0.098,0.480,0.097,-0.36,0.09,1,0
25192,0.083,0.004,1.013,0.083,0.501,0.068,0.9954,0.0056,-0.0407,0.0865,0.241,-4.703,189.927,0.108,-1.564,2.111,0.000,0.000,0.000,-0.743,10.957,2.111,-0.096,0.481,0.098,-0.37,-0.24,1,0
25211,0.083,0.004,1.013,0.081,0.380,0.080,0.9954,0.0053,-0.0406,0.0866,0.207,-4.684,189.931,0.108,-1.564,2.111,0.000,0.000,0.000,-0.668,10.856,2.111,-0.085,0.498,0.097,-0.37,-0.23,1,0
25226,0.083,0.003,1.013,0.184,0.403,-0.070,0.9954,0.0053,-0.0405,0.0866,0.206,-4.674,189.932,0.108,-1.564,2.111,0.000,0.000,0.000,-0.542,10.855,2.111,-0.078,0.499,0.105,-0.37,-0.23,1,0
25243,0.083,0.004,1.013,0.059,0.336,-0.207,0.9954,0.0056,-0.0403,0.0865,0.235,-4.656,189.927,0.108,-1.564,2.111,0.000,0.000,0.000,-0.616,10.841,2.111,-0.064,0.506,0.127,-0.37,-0.17,1,0
25257,0.083,0.005,1.013,-0.041,0.354,0.050,0.9954,0.0060,-0.0404,0.0865,0.282,-4.678,189.922,0.108,-1.564,2.111,0.000,0.000,0.000,-0.985,10.787,2.111,-0.070,0.505,0.122,-0.37,0.22,1,0
25283,0.082,0.004,1.012,0.046,0.426,-0.164,0.9954,0.0053,-0.0402,0.0865,0.209,-4.644,189.929,0.108,-1.564,2.111,0.000,0.000,0.000,-0.582,10.737,2.111,-0.078,0.495,0.113,-0.36,0.21,1,0
25305,0.082,0.004,1.012,0.035,0.288,-0.071,0.9954,0.0055,-0.0402,0.0865,0.234,-4.642,189.923,0.000,-1.564,2.111,0.000,0.000,0.000,-1.173,10.771,2.111,-0.079,0.505,0.129,-0.35,0.24,1,0
25323,0.082,0.003,1.012,0.060,0.205,0.096,0.9954,0.0052,-0.0401,0.0865,0.194,-4.632,189.927,0.000,-1.564,2.111,0.000,0.000,0.000,-1.116,10.729,2.111,-0.107,0.524,0.106,-0.34,0.63,1,0
25338,0.082,0.003,1.012,0.033,0.208,0.094,0.9954,0.0053,-0.0400,0.0865,0.207,-4.618,189.927,0.000,-1.564,2.111,0.000,0.000,0.000,-0.960,10.682,2.111,-0.109,0.527,0.096,-0.33,0.60,1,0
25356,0.082,0.004,1.012,0.128,0.222,0.087,0.9954,0.0053,-0.0400,0.0865,0.214,-4.617,189.928,0.000,-1.564,2.111,0.000,0.000,0.000,-1.195,10.673,2.111,-0.107,0.528,0.093,-0.32,0.57,1,0
25382,0.081,0.004,1.012,0.020,0.005,-0.063,0.9954,0.0057,-0.0398,0.0865,0.254,-4.599,189.924,0.000,-1.564,2.111,0.000,0.000,0.000,-1.405,10.606,2.111,-0.119,0.538,0.112,-0.31,0.50,1,0
25783,0.082,0.004,1.013,0.079,-0.150,-0.027,0.9954,0.0057,-0.0404,0.0866,0.248,-4.670,189.931,0.000,-1.564,2.111,0.000,0.000,0.000,-1.280,10.762,2.287,-0.122,0.583,0.134,-0.26,0.22,1,0
25812,0.082,0.004,1.012,0.069,0.111,0.051,0.9954,0.0055,-0.0403,0.0866,0.228,-4.651,189.936,5.161,-1.564,2.111,0.000,0.000,0.000,22.735,10.780,2.111,0.020,0.570,0.097,-0.24,0.26,1,0
25840,0.082,0.005,1.013,0.157,0.161,0.033,0.9954,0.0061,-0.0400,0.0865,0.297,-4.623,189.925,23.548,-1.564,2.111,0.000,0.000,0.000,90.000,10.610,2.111,0.432,0.551,0.118,-0.24,-0.08,1,0
25856,0.082,0.004,1.013,0.160,0.202,0.067,0.9954,0.0054,-0.0400,0.0866,0.220,-4.623,189.933,24.140,-1.564,2.111,0.000,0.000,0.000,90.000,10.499,2.111,0.517,0.537,0.098,-0.24,-0.07,1,0
25882,0.082,0.004,1.013,-0.004,-0.070,-0.016,0.9954,0.0056,-0.0400,0.0866,0.238,-4.623,189.931,24.892,-1.564,2.111,0.000,0.000,0.000,90.000,10.512,2.111,0.629,0.547,0.101,-0.25,-0.07,1,0
25897,0.082,0.004,1.012,0.060,-0.083,0.026,0.9954,0.0057,-0.0402,0.0866,0.255,-4.642,189.930,24.892,-1.564,2.111,0.000,0.000,0.000,90.000,10.465,2.111,0.678,0.562,0.099,-0.25,-0.09,1,0
25916,0.082,0.005,1.012,-0.062,0.084,0.049,0.9954,0.0058,-0.0401,0.0866,0.266,-4.642,189.930,24.892,-1.564,2.111,0.000,0.000,0.000,90.000,10.583,2.111,0.731,0.565,0.097,-0.25,-0.25,1,0
25935,0.082,0.004,1.013,0.176,0.147,-0.053,0.9954,0.0057,-0.0399,0.0866,0.252,-4.617,189.932,24.839,-1.564,2.111,0.000,0.000,0.000,90.000,10.582,2.111,0.780,0.555,0.101,-0.26,-0.24,1,0
25954,0.082,0.005,1.011,0.162,0.081,-0.089,0.9954,0.0059,-0.0402,0.0866,0.273,-4.651,189.930,24.032,-1.564,2.111,0.000,0.000,0.000,90.000,10.606,2.111,0.805,0.562,0.109,-0.26,-0.24,1,0
25964,0.082,0.004,1.012,0.172,0.010,0.139,0.9954,0.0057,-0.0400,0.0866,0.257,-4.624,189.932,23.441,-1.564,2.111,0.000,0.000,0.000,90.000,10.635,2.111,0.838,0.582,0.098,-0.27,-0.28,1,0
25994,0.082,0.003,1.012,0.067,0.127,-0.028,0.9954,0.0050,-0.0402,0.0866,0.172,-4.642,189.941,21.398,-1.466,2.111,0.000,0.000,0.000,90.000,10.950,2.111,0.870,0.596,0.100,-0.29,-0.78,1,0
26016,0.082,0.004,1.012,0.234,-0.076,-0.064,0.9954,0.0057,-0.0404,0.0866,0.247,-4.665,189.931,17.258,-1.466,2.111,0.000,0.000,0.000,90.000,10.965,2.111,0.900,0.647,0.125,-0.30,-0.62,1,0
26040,0.083,0.005,1.012,0.023,0.091,0.162,0.9954,0.0057,-0.0402,0.0866,0.256,-4.652,189.932,13.118,-1.466,2.111,0.000,0.000,0.000,71.743,11.075,2.111,0.917,0.650,0.103,-0.30,0.13,1,0
26055,0.083,0.005,1.011,0.120,-0.003,0.184,0.9954,0.0059,-0.0405,0.0866,0.277,-4.685,189.934,4.140,-1.564,2.111,0.000,0.000,0.000,46.125,10.783,2.111,0.505,0.647,0.085,-0.30,0.13,1,0
26075,0.082,0.004,1.011,0.081,-0.292,0.240,0.9954,0.0056,-0.0403,0.0867,0.244,-4.655,189.942,0.645,-1.564,2.111,0.000,0.000,0.000,11.634,10.817,2.111,0.230,0.650,0.071,-0.30,0.09,1,0
26095,0.082,0.004,1.012,-0.089,-0.273,-0.092,0.9954,0.0054,-0.0404,0.0867,0.213,-4.662,189.945,0.430,-1.564,2.111,0.000,0.000,0.000,1.324,10.781,2.111,0.025,0.657,0.097,-0.30,-0.23,1,0
26106,0.082,0.004,1.011,0.126,-0.329,-0.085,0.9954,0.0055,-0.0403,0.0867,0.233,-4.652,189.942,0.376,-1.564,2.111,0.000,0.000,0.000,1.303,10.856,2.111,-0.110,0.661,0.117,-0.31,-0.23,1,0
26133,0.082,0.004,1.012,-0.017,-0.210,-0.043,0.9954,0.0056,-0.0402,0.0867,0.240,-4.644,189.941,0.215,-1.564,2.111,0.000,0.000,0.000,-0.116,10.748,2.111,-0.315,0.652,0.114,-0.31,-0.21,1,0
26146,0.083,0.005,1.010,0.012,-0.075,-0.069,0.9954,0.0058,-0.0404,0.0866,0.267,-4.666,189.938,0.215,-1.564,2.111,0.000,0.000,0.000,-0.331,10.732,2.111,-0.380,0.631,0.116,-0.31,-0.21,1,0
26156,0.083,0.005,1.011,0.111,-0.113,-0.032,0.9954,0.0057,-0.0403,0.0866,0.250,-4.657,189.939,0.215,-1.564,2.111,0.000,0.000,0.000,-0.227,10.944,2.111,-0.422,0.625,0.118,-0.32,-0.20,1,0
26184,0.083,0.004,1.010,0.187,-0.178,0.084,0.9954,0.0057,-0.0404,0.0867,0.253,-4.676,189.941,0.108,-1.564,2.111,0.000,0.000,0.000,-0.874,10.946,2.111,-0.413,0.635,0.101,-0.32,-0.19,1,0
26204,0.082,0.005,1.011,0.230,-0.097,-0.015,0.9954,0.0057,-0.0404,0.0867,0.256,-4.665,189.941,0.108,-1.564,2.111,0.000,0.000,0.000,-0.769,10.895,2.111,-0.372,0.636,0.105,-0.33,-0.18,1,0
26218,0.083,0.004,1.010,0.131,-0.062,-0.014,0.9954,0.0057,-0.0404,0.0867,0.247,-4.666,189.942,0.108,-1.564,2.111,0.000,0.000,0.000,-0.758,10.590,2.111,-0.336,0.613,0.109,-0.32,-0.14,1,0
26235,0.082,0.004,1.012,0.075,-0.062,-0.043,0.9954,0.0056,-0.0402,0.0867,0.246,-4.642,189.942,0.108,-1.564,2.111,0.000,0.000,0.000,-0.716,10.891,2.111,-0.282,0.612,0.110,-0.32,0.19,1,0
26658,0.082,0.004,1.011,0.175,-0.042,-0.046,0.9954,0.0054,-0.0400,0.0868,0.221,-4.626,189.954,0.108,-1.564,2.287,0.000,0.000,0.000,-0.515,10.656,2.287,0.010,0.648,0.123,-0.32,-0.19,1,0
26684,0.082,0.004,1.013,0.098,-0.177,-0.053,0.9954,0.0055,-0.0402,0.0867,0.230,-4.647,189.952,0.108,-1.564,2.111,0.000,0.000,0.000,0.000,10.776,2.111,0.057,0.656,0.113,-0.33,-0.18,1,0
26702,0.082,0.004,1.013,0.084,-0.131,0.009,0.9954,0.0056,-0.0401,0.0868,0.238,-4.629,189.952,0.108,-1.564,2.111,0.000,0.000,0.000,-0.770,10.709,2.111,0.015,0.664,0.104,-0.34,-0.26,1,0
26720,0.082,0.004,1.013,0.025,-0.133,0.052,0.9954,0.0056,-0.0403,0.0868,0.241,-4.653,189.952,0.000,-1.564,2.111,0.000,0.000,0.000,-1.353,10.703,2.111,-0.040,0.662,0.100,-0.34,-0.24,1,0
26734,0.082,0.004,1.013,-0.011,-0.135,0.063,0.9954,0.0057,-0.0401,0.0868,0.250,-4.633,189.952,0.000,-1.564,2.111,0.000,0.000,0.000,-1.353,10.703,2.111,-0.052,0.661,0.098,-0.34,-0.24,1,0
26754,0.082,0.004,1.013,0.010,-0.151,0.079,0.9954,0.0053,-0.0400,0.0868,0.210,-4.618,189.957,0.000,-1.564,2.111,0.000,0.000,0.000,-1.267,10.665,2.111,-0.067,0.659,0.092,-0.35,-0.25,1,0
26764,0.082,0.004,1.013,0.105,-0.070,0.013,0.9954,0.0056,-0.0402,0.0868,0.238,-4.644,189.956,0.000,-1.564,2.111,0.000,0.000,0.000,-1.271,10.675,2.111,-0.066,0.659,0.098,-0.35,-0.35,1,0
26782,0.082,0.005,1.013,0.098,0.019,0.125,0.9954,0.0060,-0.0401,0.0868,0.286,-4.635,189.953,0.000,-1.564,2.111,0.000,0.000,0.000,-1.611,10.727,2.111,-0.077,0.649,0.096,-0.36,-0.33,1,0
26796,0.082,0.004,1.013,0.167,0.041,0.054,0.9954,0.0055,-0.0402,0.0868,0.223,-4.648,189.960,0.000,-1.564,2.111,0.000,0.000,0.000,-1.479,10.697,2.111,-0.101,0.640,0.094,-0.35,-0.19,1,0
26812,0.082,0.004,1.013,0.181,-0.045,-0.158,0.9954,0.0055,-0.0402,0.0868,0.227,-4.645,189.959,0.000,-1.564,2.111,0.000,0.000,0.000,-1.254,10.759,2.111,-0.098,0.653,0.108,-0.34,0.91,1,0
26826,0.082,0.004,1.013,0.221,-0.026,-0.163,0.9954,0.0053,-0.0402,0.0868,0.209,-4.644,189.958,0.000,-1.564,2.111,0.000,0.000,0.000,-1.160,10.805,2.111,-0.086,0.658,0.128,-0.33,0.91,1,0
26842,0.082,0.004,1.013,0.121,0.106,-0.074,0.9954,0.0055,-0.0404,0.0868,0.221,-4.665,189.956,0.000,-1.564,2.111,0.000,0.000,0.000,-1.208,10.811,2.111,-0.075,0.649,0.124,-0.31,0.86,1,0
26866,0.082,0.004,1.012,0.129,0.160,0.106,0.9954,0.0055,-0.0404,0.0868,0.228,-4.664,189.955,0.000,-1.564,2.111,0.000,0.000,0.000,-1.324,10.832,2.111,-0.070,0.641,0.105,-0.31,0.73,1,0
26876,0.083,0.004,1.013,0.104,0.113,0.055,0.9954,0.0054,-0.0404,0.0868,0.218,-4.667,189.957,0.000,-1.564,2.111,0.000,0.000,0.000,-1.266,10.740,2.111,-0.073,0.645,0.100,-0.31,-0.06,1,0
26902,0.083,0.005,1.012,-0.073,0.021,0.132,0.9954,0.0058,-0.0403,0.0868,0.267,-4.661,189.953,0.000,-1.564,2.111,0.000,0.000,0.000,-1.492,10.812,2.111,-0.073,0.663,0.100,-0.31,-0.06,1,0
26920,0.082,0.004,1.012,0.107,0.056,0.206,0.9954,0.0058,-0.0402,0.0868,0.264,-4.654,189.957,0.000,-1.564,2.111,0.000,0.000,0.000,-1.493,10.713,2.111,-0.082,0.665,0.083,-0.31,-0.06,1,0
26934,0.082,0.004,1.012,0.117,0.094,0.189,0.9954,0.0055,-0.0400,0.0868,0.229,-4.620,189.961,0.000,-1.564,2.111,0.000,0.000,0.000,-1.471,10.786,2.111,-0.086,0.664,0.081,-0.31,0.01,1,0
26952,0.082,0.004,1.012,0.077,-0.060,0.168,0.9954,0.0056,-0.0402,0.0869,0.240,-4.643,189.964,0.000,-1.564,2.111,0.000,0.000,0.000,-1.415,10.808,2.111,-0.081,0.679,0.086,-0.30,0.55,1,0
26970,0.082,0.004,1.012,0.178,-0.188,0.042,0.9954,0.0055,-0.0403,0.0869,0.222,-4.657,189.968,0.000,-1.564,2.111,0.000,0.000,0.000,-1.161,10.733,2.111,-0.081,0.701,0.093,-0.29,0.52,1,0
26986,0.082,0.004,1.012,0.158,-0.080,-0.022,0.9954,0.0053,-0.0402,0.0869,0.202,-4.646,189.970,0.000,-1.564,2.111,0.000,0.000,0.000,-1.187,10.825,2.111,-0.072,0.700,0.106,-0.28,0.52,1,0
27002,0.082,0.004,1.012,0.177,0.086,-0.132,0.9954,0.0053,-0.0403,0.0869,0.202,-4.651,189.969,0.000,-1.564,2.111,0.000,0.000,0.000,-1.231,10.735,2.111,-0.069,0.682,0.120,-0.28,0.45,1,0
27016,0.082,0.004,1.012,0.099,0.105,-0.080,0.9954,0.0057,-0.0401,0.0869,0.246,-4.634,189.964,0.000,-1.564,2.111,0.000,0.000,0.000,-1.246,10.737,2.111,-0.076,0.666,0.125,-0.28,-0.03,1,0
27035,0.082,0.004,1.012,0.070,-0.031,0.015,0.9954,0.0055,-0.0400,0.0869,0.230,-4.622,189.965,0.000,-1.564,2.111,0.000,0.000,0.000,-1.354,10.740,2.111,-0.082,0.672,0.115,-0.28,-0.02,1,0
27064,0.082,0.004,1.012,-0.000,-0.135,0.032,0.9954,0.0057,-0.0401,0.0869,0.252,-4.633,189.964,0.000,-1.564,2.111,0.000,0.000,0.000,-1.285,10.680,2.111,-0.077,0.694,0.104,-0.28,0.03,1,0
27474,0.082,0.004,1.012,0.053,-0.060,-0.104,0.9954,0.0056,-0.0399,0.0870,0.247,-4.608,189.975,0.000,-1.564,2.111,0.000,0.000,0.000,-1.233,10.656,2.111,-0.096,0.700,0.117,-0.29,-0.81,1,0
27514,0.082,0.004,1.012,0.195,-0.038,-0.029,0.9954,0.0057,-0.0398,0.0870,0.252,-4.597,189.976,0.000,-1.564,2.111,0.000,0.000,0.000,-1.297,10.630,2.111,-0.117,0.709,0.111,-0.32,-0.73,1,0
27532,0.082,0.005,1.012,0.026,0.002,0.096,0.9954,0.0060,-0.0399,0.0870,0.283,-4.619,189.974,0.000,-1.564,2.111,0.000,0.000,0.000,-1.589,10.664,2.111,-0.118,0.711,0.109,-0.33,-0.62,1,0
27556,0.082,0.004,1.012,0.092,-0.021,-0.034,0.9954,0.0056,-0.0401,0.0870,0.241,-4.633,189.979,0.000,-1.564,2.111,0.000,0.000,0.000,-1.394,10.635,2.111,-0.128,0.716,0.107,-0.34,-0.59,1,0
27584,0.082,0.004,1.012,0.171,-0.018,0.100,0.9954,0.0056,-0.0401,0.0870,0.235,-4.631,189.980,0.108,-1.564,2.111,0.000,0.000,0.000,-0.776,10.787,2.111,-0.069,0.733,0.103,-0.35,-0.55,1,0
27596,0.082,0.004,1.012,0.108,-0.041,0.041,0.9954,0.0054,-0.0403,0.0870,0.216,-4.650,189.983,0.108,-1.564,2.111,0.000,0.000,0.000,-0.721,10.723,2.111,-0.064,0.738,0.101,-0.36,-0.44,1,0
27612,0.082,0.004,1.012,0.132,0.035,-0.122,0.9954,0.0054,-0.0403,0.0870,0.212,-4.659,189.982,0.108,-1.564,2.111,0.000,0.000,0.000,-0.597,10.782,2.111,-0.054,0.738,0.112,-0.36,-0.44,1,0
27626,0.082,0.004,1.012,0.250,0.085,-0.145,0.9954,0.0057,-0.0402,0.0870,0.254,-4.642,189.976,0.108,-1.564,2.111,0.000,0.000,0.000,-0.686,10.801,2.111,-0.054,0.735,0.131,-0.37,-0.42,1,0
27642,0.082,0.005,1.012,0.186,0.013,0.102,0.9954,0.0060,-0.0402,0.0870,0.285,-4.652,189.974,0.108,-1.564,2.111,0.000,0.000,0.000,-0.985,10.780,2.111,-0.073,0.732,0.110,-0.37,-0.38,1,0
27658,0.082,0.004,1.013,-0.048,0.047,0.092,0.9954,0.0058,-0.0402,0.0870,0.261,-4.653,189.977,0.108,-1.564,2.111,0.000,0.000,0.000,-0.885,10.749,2.111,-0.076,0.729,0.099,-0.38,-0.18,1,0
27674,0.082,0.005,1.013,-0.004,-0.096,0.121,0.9954,0.0058,-0.0403,0.0870,0.258,-4.655,189.979,0.108,-1.564,2.111,0.000,0.000,0.000,-0.962,10.798,2.111,-0.066,0.742,0.091,-0.38,-0.17,1,0
27702,0.082,0.004,1.012,-0.010,-0.075,0.022,0.9954,0.0058,-0.0402,0.0870,0.260,-4.649,189.982,0.108,-1.564,2.111,0.000,0.000,0.000,-0.611,10.822,2.111,-0.065,0.761,0.094,-0.38,-0.16,1,0
27714,0.083,0.004,1.013,0.079,-0.025,-0.038,0.9954,0.0055,-0.0405,0.0870,0.220,-4.675,189.985,0.108,-1.564,2.111,0.000,0.000,0.000,-0.712,10.792,2.111,-0.059,0.756,0.105,-0.39,-0.16,1,0
27735,0.082,0.004,1.013,0.176,-0.154,-0.058,0.9954,0.0055,-0.0401,0.0870,0.232,-4.635,189.984,0.108,-1.564,2.111,0.000,0.000,0.000,-0.696,10.720,2.111,-0.069,0.764,0.111,-0.39,-0.24,1,0
27744,0.082,0.004,1.013,0.125,-0.161,-0.050,0.9954,0.0054,-0.0402,0.0870,0.214,-4.647,189.985,0.108,-1.564,2.111,0.000,0.000,0.000,-0.585,10.765,2.111,-0.071,0.764,0.114,-0.39,-0.24,1,0
27766,0.082,0.004,1.012,0.078,0.138,0.081,0.9954,0.0057,-0.0404,0.0870,0.249,-4.672,189.983,0.108,-1.564,2.111,0.000,0.000,0.000,-0.872,10.807,2.111,-0.078,0.739,0.100,-0.40,-0.22,1,0
27792,0.082,0.004,1.012,-0.058,-0.085,0.072,0.9954,0.0055,-0.0403,0.0871,0.231,-4.657,189.988,0.108,-1.564,2.111,0.000,0.000,0.000,-0.586,10.755,2.111,-0.062,0.741,0.094,-0.41,-0.25,1,0
27803,0.082,0.004,1.012,-0.014,-0.071,0.040,0.9954,0.0055,-0.0403,0.0871,0.228,-4.660,189.988,0.108,-1.564,2.111,0.000,0.000,0.000,-0.601,10.741,2.111,-0.057,0.745,0.097,-0.41,-0.25,1,0
27818,0.083,0.004,1.012,0.124,-0.047,-0.065,0.9954,0.0055,-0.0404,0.0871,0.222,-4.672,189.989,0.108,-1.564,2.111,0.000,0.000,0.000,-0.647,10.831,2.111,-0.062,0.752,0.109,-0.41,-0.24,1,0
27834,0.083,0.004,1.012,0.156,-0.044,-0.130,0.9954,0.0055,-0.0404,0.0871,0.225,-4.672,189.987,0.108,-1.564,2.111,0.000,0.000,0.000,-0.650,10.847,2.111,-0.069,0.756,0.120,-0.41,-0.19,1,0
27850,0.082,0.005,1.012,0.098,0.143,0.152,0.9954,0.0061,-0.0402,0.0870,0.298,-4.648,189.981,0.108,-1.564,2.111,0.000,0.000,0.000,-1.062,10.767,2.111,-0.082,0.751,0.112,-0.41,0.13,1,0
27876,0.082,0.004,1.012,0.127,0.154,0.201,0.9954,0.0057,-0.0403,0.0871,0.249,-4.663,189.990,0.108,-1.564,2.111,0.000,0.000,0.000,-0.687,10.768,2.111,-0.098,0.729,0.085,-0.41,0.13,1,0
27886,0.082,0.004,1.012,0.058,-0.004,0.024,0.9954,0.0057,-0.0404,0.0871,0.247,-4.665,189.991,0.108,-1.564,2.111,0.000,0.000,0.000,-0.798,10.811,2.111,-0.089,0.736,0.091,-0.41,0.13,1,0
27904,0.082,0.004,1.012,0.117,-0.071,0.027,0.9954,0.0055,-0.0403,0.0871,0.225,-4.658,189.993,0.108,-1.564,2.111,0.000,0.000,0.000,-0.557,10.748,2.111,-0.082,0.755,0.102,-0.40,0.14,1,0
28307,0.082,0.004,1.012,0.263,-0.074,-0.092,0.9954,0.0055,-0.0404,0.0871,0.225,-4.670,189.991,0.108,-1.564,2.111,0.000,0.000,0.000,-0.670,10.780,2.111,-0.146,0.781,0.118,-0.40,-0.17,1,0
28344,0.082,0.004,1.012,0.232,-0.102,-0.058,0.9954,0.0056,-0.0401,0.0871,0.238,-4.638,189.989,0.108,-1.564,2.111,0.000,0.000,0.000,-0.723,10.727,2.111,-0.132,0.792,0.112,-0.40,-0.11,1,0
28362,0.082,0.005,1.012,0.051,-0.109,-0.021,0.9954,0.0060,-0.0400,0.0870,0.284,-4.625,189.983,0.108,-1.564,2.111,0.000,0.000,0.000,-0.963,10.666,2.111,-0.126,0.786,0.119,-0.39,-0.03,1,0
28377,0.082,0.005,1.012,0.174,-0.146,0.111,0.9954,0.0057,-0.0402,0.0871,0.245,-4.645,189.988,0.108,-1.564,2.111,0.000,0.000,0.000,-0.873,10.720,2.111,-0.131,0.787,0.105,-0.38,0.62,1,0
28402,0.082,0.005,1.012,-0.087,-0.233,0.123,0.9954,0.0057,-0.0401,0.0871,0.246,-4.634,189.990,0.108,-1.564,2.111,0.000,0.000,0.000,-0.771,10.715,2.111,-0.111,0.808,0.095,-0.37,0.59,1,0
28424,0.082,0.005,1.012,-0.033,-0.250,0.074,0.9954,0.0056,-0.0402,0.0871,0.241,-4.648,189.991,0.108,-1.564,2.111,0.000,0.000,0.000,-0.880,10.765,2.111,-0.108,0.814,0.094,-0.37,0.49,1,0
28434,0.082,0.004,1.012,0.081,-0.332,0.031,0.9954,0.0056,-0.0402,0.0871,0.243,-4.646,189.992,0.108,-1.564,2.111,0.000,0.000,0.000,-0.611,10.744,2.111,-0.106,0.822,0.097,-0.37,-0.16,1,0
28452,0.082,0.004,1.012,0.120,-0.376,-0.064,0.9954,0.0056,-0.0404,0.0871,0.234,-4.664,189.993,0.108,-1.564,2.111,0.000,0.000,0.000,-0.708,10.822,2.111,-0.105,0.833,0.106,-0.37,-0.15,1,0
28463,0.083,0.004,1.012,0.128,-0.211,-0.082,0.9954,0.0056,-0.0404,0.0871,0.240,-4.673,189.991,0.108,-1.564,2.111,0.000,0.000,0.000,-0.691,10.842,2.111,-0.112,0.835,0.113,-0.38,-0.15,1,0
28486,0.083,0.004,1.012,0.046,-0.134,0.033,0.9954,0.0058,-0.0405,0.0871,0.260,-4.688,189.990,0.108,-1.564,2.111,0.000,0.000,0.000,-0.760,10.862,2.111,-0.121,0.821,0.107,-0.38,-0.14,1,0
28505,0.083,0.004,1.012,0.069,-0.114,-0.018,0.9953,0.0058,-0.0407,0.0871,0.253,-4.704,189.990,0.108,-1.564,2.111,0.000,0.000,0.000,-0.799,10.879,2.111,-0.115,0.823,0.110,-0.37,-0.07,1,0
28522,0.083,0.004,1.012,0.080,-0.084,-0.002,0.9954,0.0057,-0.0405,0.0871,0.248,-4.681,189.991,0.108,-1.564,2.111,0.000,0.000,0.000,-0.794,10.882,2.111,-0.118,0.816,0.108,-0.36,0.52,1,0
28540,0.083,0.004,1.012,0.052,-0.019,-0.006,0.9953,0.0056,-0.0406,0.0871,0.230,-4.697,189.993,0.108,-1.564,2.111,0.000,0.000,0.000,-0.780,10.884,2.111,-0.114,0.814,0.106,-0.35,0.49,1,0
28566,0.083,0.005,1.013,0.018,-0.042,0.084,0.9954,0.0059,-0.0406,0.0871,0.274,-4.692,189.990,0.108,-1.564,2.111,0.000,0.000,0.000,-1.054,10.938,2.111,-0.123,0.813,0.103,-0.35,0.40,1,0
28582,0.083,0.005,1.013,0.063,-0.004,0.099,0.9954,0.0058,-0.0405,0.0871,0.254,-4.681,189.994,0.108,-1.564,2.111,0.000,0.000,0.000,-0.816,10.875,2.111,-0.137,0.811,0.095,-0.36,-0.24,1,0
28602,0.083,0.004,1.012,0.096,0.135,-0.063,0.9954,0.0058,-0.0405,0.0871,0.253,-4.684,189.994,0.108,-1.564,2.111,0.000,0.000,0.000,-0.907,10.940,2.111,-0.133,0.802,0.104,-0.36,-0.23,1,0
28615,0.083,0.005,1.012,0.135,0.087,-0.033,0.9954,0.0058,-0.0405,0.0871,0.259,-4.681,189.993,0.108,-1.564,2.111,0.000,0.000,0.000,-0.699,10.869,2.111,-0.128,0.801,0.115,-0.36,-0.14,1,0
28627,0.083,0.005,1.013,0.103,0.129,0.056,0.9954,0.0058,-0.0405,0.0871,0.259,-4.683,189.993,0.108,-1.564,2.111,0.000,0.000,0.000,-0.843,10.885,2.111,-0.127,0.797,0.111,-0.35,-0.14,1,0
28636,0.083,0.004,1.013,0.102,0.152,0.099,0.9954,0.0058,-0.0405,0.0871,0.254,-4.680,189.994,0.108,-1.564,2.111,0.000,0.000,0.000,-0.842,10.886,2.111,-0.128,0.795,0.105,-0.35,0.53,1,0
28655,0.083,0.004,1.012,0.078,0.294,0.026,0.9954,0.0058,-0.0405,0.0871,0.256,-4.678,189.995,0.108,-1.564,2.111,0.000,0.000,0.000,-0.700,10.868,2.111,-0.127,0.784,0.103,-0.34,0.50,1,0
28667,0.083,0.004,1.012,0.066,0.252,-0.027,0.9954,0.0056,-0.0405,0.0871,0.234,-4.682,189.997,0.108,-1.564,2.111,0.000,0.000,0.000,-0.831,10.873,2.111,-0.123,0.781,0.106,-0.33,0.50,1,0
28696,0.083,0.004,1.013,-0.003,0.224,0.014,0.9954,0.0056,-0.0404,0.0871,0.239,-4.673,189.997,0.108,-1.564,2.111,0.000,0.000,0.000,-0.863,10.866,2.111,-0.125,0.791,0.106,-0.34,-0.14,1,0
28715,0.083,0.004,1.013,0.068,0.135,0.013,0.9953,0.0055,-0.0406,0.0871,0.227,-4.692,189.998,0.108,-1.564,2.111,0.000,0.000,0.000,-0.683,10.840,2.111,-0.116,0.804,0.109,-0.34,-0.13,1,0
28731,0.083,0.004,1.012,0.118,0.098,0.059,0.9954,0.0055,-0.0404,0.0872,0.223,-4.669,189.999,0.108,-1.564,2.111,0.000,0.000,0.000,-0.649,10.838,2.111,-0.111,0.817,0.103,-0.34,-0.12,1,0
29161,0.056,-0.001,1.011,-0.696,5.997,0.716,0.9958,0.0022,-0.0275,0.0871,-0.018,-3.158,190.002,0.108,-1.564,2.111,0.000,0.000,0.000,0.562,5.604,2.111,-0.088,0.150,0.052,-0.40,-0.74,1,0
29194,0.052,0.002,1.010,-0.084,5.294,-0.342,0.9959,0.0031,-0.0256,0.0872,0.100,-2.951,190.006,0.108,-1.564,2.111,0.000,0.000,0.000,0.423,4.978,2.111,0.029,0.248,0.097,-0.42,-0.65,1,0
29211,0.052,0.006,1.011,0.102,4.973,-0.436,0.9959,0.0043,-0.0251,0.0871,0.236,-2.908,189.994,0.108,-1.564,2.111,0.000,0.000,0.000,-0.212,4.773,2.111,-0.022,0.279,0.149,-0.42,-0.65,1,0
29225,0.049,0.007,1.010,0.310,4.836,-0.428,0.9959,0.0057,-0.0239,0.0870,0.415,-2.781,189.978,0.108,-1.564,2.111,0.000,0.000,0.000,-1.488,4.382,2.111,-0.167,0.304,0.176,-0.43,-0.44,1,0
29246,0.047,0.005,1.011,0.068,4.722,-0.084,0.9959,0.0043,-0.0231,0.0870,0.262,-2.677,189.980,0.108,-1.564,2.111,0.000,0.000,0.000,-1.307,4.087,2.111,-0.235,0.284,0.165,-0.44,-0.41,1,0
29272,0.046,-0.001,1.011,-0.272,4.044,0.410,0.9959,0.0023,-0.0227,0.0871,0.036,-2.618,189.995,0.108,-1.564,2.111,0.000,0.000,0.000,-0.117,3.833,2.111,-0.140,0.312,0.090,-0.44,-0.37,1,0
29284,0.044,-0.002,1.012,-0.442,3.590,0.420,0.9959,0.0010,-0.0219,0.0872,-0.102,-2.516,190.009,0.108,-1.564,2.111,0.000,0.000,0.000,1.180,3.475,2.111,-0.021,0.364,0.056,-0.45,-0.19,1,0
29303,0.043,0.001,1.011,-0.392,3.197,0.080,0.9960,0.0023,-0.0210,0.0872,0.047,-2.421,190.007,0.108,-1.564,2.111,0.000,0.000,0.000,0.575,3.075,2.111,0.046,0.399,0.068,-0.45,-0.25,1,0
29322,0.042,0.005,1.011,0.404,2.616,-0.371,0.9960,0.0038,-0.0203,0.0872,0.231,-2.355,189.997,0.108,-1.564,2.111,0.000,0.000,0.000,-0.041,2.907,2.111,-0.028,0.429,0.118,-0.46,-0.24,1,0
29335,0.040,0.007,1.010,0.623,2.445,-0.602,0.9960,0.0053,-0.0195,0.0870,0.416,-2.279,189.981,0.108,-1.564,2.111,0.000,0.000,0.000,-1.343,2.628,2.111,-0.146,0.454,0.171,-0.46,-0.21,1,0
29353,0.039,0.006,1.011,0.339,2.377,-0.349,0.9960,0.0046,-0.0189,0.0870,0.331,-2.206,189.977,0.108,-1.564,2.111,0.000,0.000,0.000,-1.248,2.242,2.111,-0.234,0.449,0.179,-0.46,-0.05,1,0
29372,0.038,0.001,1.011,0.079,1.924,0.256,0.9960,0.0026,-0.0188,0.0870,0.109,-2.169,189.986,0.108,-1.564,2.111,0.000,0.000,0.000,-0.134,2.122,2.111,-0.193,0.439,0.120,-0.46,-0.04,1,0
29393,0.037,-0.002,1.011,-0.439,1.312,0.428,0.9960,0.0007,-0.0183,0.0871,-0.100,-2.096,190.002,0.108,-1.564,2.111,0.000,0.000,0.000,1.154,1.870,2.111,-0.041,0.486,0.058,-0.46,-0.04,1,0
29406,0.036,-0.000,1.011,-0.278,0.863,0.352,0.9960,0.0014,-0.0179,0.0872,-0.022,-2.052,190.005,0.108,-1.564,2.111,0.000,0.000,0.000,0.999,1.786,2.111,0.034,0.520,0.046,-0.46,-0.04,1,0
29433,0.035,0.004,1.010,0.430,0.199,-0.305,0.9960,0.0033,-0.0170,0.0872,0.205,-1.977,189.997,0.108,-1.564,2.111,0.000,0.000,0.000,-0.413,1.427,2.111,-0.022,0.580,0.101,-0.46,-0.01,1,0
29452,0.034,0.007,1.010,0.522,-0.166,-0.426,0.9960,0.0050,-0.0167,0.0870,0.409,-1.955,189.981,0.108,-1.564,2.111,0.000,0.000,0.000,-1.643,1.332,2.111,-0.179,0.607,0.160,-0.45,0.09,1,0
29470,0.034,0.006,1.011,0.469,-0.210,-0.191,0.9961,0.0044,-0.0166,0.0870,0.332,-1.939,189.980,0.108,-1.564,2.111,0.000,0.000,0.000,-1.455,1.452,2.111,-0.258,0.608,0.155,-0.44,0.09,1,0
29483,0.034,0.003,1.011,0.329,-0.587,0.214,0.9961,0.0031,-0.0166,0.0870,0.185,-1.924,189.985,0.108,-1.564,2.111,0.000,0.000,0.000,-0.678,1.274,2.111,-0.233,0.613,0.115,-0.43,0.90,1,0
29498,0.033,-0.000,1.011,-0.413,-1.124,0.410,0.9961,0.0017,-0.0165,0.0871,0.026,-1.900,189.995,0.108,-1.564,2.111,0.000,0.000,0.000,-0.055,1.240,2.111,-0.146,0.648,0.073,-0.42,0.86,1,0
29512,0.033,-0.001,1.012,-0.509,-1.604,0.452,0.9961,0.0011,-0.0164,0.0872,-0.034,-1.886,190.005,0.108,-1.564,2.111,0.000,0.000,0.000,0.757,1.112,2.111,-0.049,0.690,0.045,-0.41,0.76,1,0
29530,0.033,0.002,1.012,0.141,-2.003,0.117,0.9961,0.0023,-0.0163,0.0872,0.095,-1.884,190.005,0.108,-1.564,2.111,0.000,0.000,0.000,0.072,1.117,2.111,0.003,0.729,0.061,-0.40,0.29,1,0
29544,0.033,0.005,1.011,0.243,-2.267,-0.121,0.9961,0.0035,-0.0159,0.0872,0.244,-1.856,190.000,0.108,-1.564,2.111,0.000,0.000,0.000,-0.417,1.073,2.111,-0.051,0.757,0.095,-0.40,0.29,1,0
29573,0.033,0.006,1.011,0.715,-2.994,-0.503,0.9961,0.0043,-0.0161,0.0871,0.327,-1.876,189.989,0.108,-1.564,2.111,0.000,0.000,0.000,-0.968,1.071,2.111,-0.190,0.801,0.158,-0.39,0.28,1,0
29592,0.033,0.004,1.012,0.098,-2.956,0.098,0.9961,0.0032,-0.0162,0.0871,0.207,-1.882,189.987,0.108,-1.564,2.111,0.000,0.000,0.000,-0.554,1.112,2.111,-0.220,0.814,0.142,-0.39,0.20,1,0
30055,0.079,0.001,1.012,0.437,-7.920,-0.207,0.9954,0.0040,-0.0390,0.0878,0.069,-4.490,190.074,0.108,-1.564,2.111,0.000,0.000,0.000,0.134,9.983,2.111,-0.143,0.992,0.172,-0.31,0.17,1,0
30090,0.083,0.001,1.012,0.011,-6.527,0.375,0.9953,0.0042,-0.0408,0.0878,0.066,-4.696,190.077,0.108,-1.564,2.111,0.000,0.000,0.000,0.226,10.965,2.111,-0.061,0.979,0.104,-0.31,0.15,1,0
30106,0.085,0.002,1.012,0.205,-6.463,0.151,0.9952,0.0046,-0.0420,0.0878,0.105,-4.847,190.078,0.108,-1.564,2.111,0.000,0.000,0.000,0.119,11.248,2.111,-0.060,0.982,0.090,-0.31,0.15,1,0
30126,0.088,0.006,1.012,0.406,-5.998,-0.089,0.9952,0.0069,-0.0429,0.0877,0.352,-4.966,190.055,0.108,-1.564,2.111,0.000,0.000,0.000,-0.836,11.704,2.111,-0.131,0.986,0.125,-0.29,0.22,1,0
30143,0.090,0.006,1.012,0.406,-5.600,0.027,0.9952,0.0069,-0.0439,0.0877,0.350,-5.078,190.055,0.108,-1.564,2.111,0.000,0.000,0.000,-1.477,12.253,2.111,-0.206,0.986,0.123,-0.28,0.89,1,0
30156,0.092,0.006,1.012,0.500,-5.256,0.075,0.9951,0.0068,-0.0448,0.0877,0.330,-5.187,190.058,0.108,-1.564,2.111,0.000,0.000,0.000,-1.508,12.376,2.111,-0.241,0.988,0.117,-0.27,0.84,1,0
30171,0.092,0.005,1.011,0.155,-5.058,0.150,0.9951,0.0063,-0.0451,0.0877,0.271,-5.209,190.064,0.108,-1.564,2.111,0.000,0.000,0.000,-1.142,12.724,2.111,-0.235,0.989,0.108,-0.26,0.84,1,0
30185,0.095,0.003,1.012,-0.019,-4.371,0.285,0.9950,0.0058,-0.0463,0.0878,0.193,-5.340,190.076,0.108,-1.564,2.111,0.000,0.000,0.000,-0.611,13.137,2.111,-0.164,0.987,0.085,-0.25,0.76,1,0
30203,0.096,0.003,1.012,-0.016,-3.660,0.004,0.9950,0.0053,-0.0471,0.0878,0.129,-5.431,190.084,0.108,-1.564,2.111,0.000,0.000,0.000,-0.166,13.411,2.111,-0.111,0.963,0.094,-0.24,0.35,1,0
30218,0.098,0.003,1.012,0.230,-3.124,-0.187,0.9950,0.0058,-0.0479,0.0878,0.184,-5.524,190.077,0.108,-1.564,2.111,0.000,0.000,0.000,-0.184,13.655,2.111,-0.102,0.940,0.123,-0.24,0.34,1,0
30246,0.100,0.005,1.012,0.384,-1.707,-0.304,0.9949,0.0071,-0.0486,0.0877,0.318,-5.626,190.057,0.108,-1.564,2.111,0.000,0.000,0.000,-0.859,14.177,2.111,-0.153,0.873,0.153,-0.23,0.31,1,0
30262,0.101,0.006,1.012,0.414,-0.948,-0.209,0.9949,0.0076,-0.0491,0.0876,0.373,-5.678,190.049,0.108,-1.564,2.111,0.000,0.000,0.000,-1.476,14.285,2.111,-0.195,0.807,0.151,-0.23,0.21,1,0
30274,0.101,0.006,1.011,-0.135,-0.454,-0.018,0.9949,0.0075,-0.0495,0.0876,0.359,-5.728,190.049,0.108,-1.564,2.111,0.000,0.000,0.000,-1.466,14.461,2.111,-0.203,0.759,0.134,-0.23,0.20,1,0
30287,0.103,0.005,1.012,-0.049,0.226,0.211,0.9948,0.0067,-0.0503,0.0877,0.255,-5.815,190.062,0.108,-1.564,2.111,0.000,0.000,0.000,-1.164,14.607,2.111,-0.197,0.707,0.099,-0.22,0.20,1,0
30306,0.104,0.003,1.012,-0.186,0.989,0.314,0.9948,0.0062,-0.0507,0.0878,0.196,-5.854,190.072,0.108,-1.564,2.111,0.000,0.000,0.000,-0.559,14.827,2.111,-0.140,0.667,0.076,-0.23,0.11,1,0
30322,0.104,0.003,1.011,-0.288,1.345,0.299,0.9948,0.0060,-0.0510,0.0878,0.177,-5.881,190.079,0.108,-1.564,2.111,0.000,0.000,0.000,-0.368,15.057,2.111,-0.087,0.652,0.061,-0.24,-0.55,1,0
30345,0.105,0.004,1.012,0.188,1.985,-0.116,0.9948,0.0064,-0.0511,0.0878,0.216,-5.905,190.077,0.108,-1.564,2.111,0.000,0.000,0.000,-0.579,15.103,2.111,-0.095,0.633,0.093,-0.26,-0.52,1,0
30363,0.105,0.005,1.012,0.212,2.510,-0.299,0.9948,0.0071,-0.0510,0.0877,0.303,-5.893,190.064,0.108,-1.564,2.111,0.000,0.000,0.000,-0.894,15.130,2.111,-0.142,0.618,0.135,-0.26,-0.50,1,0
30383,0.105,0.005,1.012,0.285,2.899,-0.131,0.9948,0.0070,-0.0513,0.0877,0.279,-5.925,190.063,0.108,-1.564,2.111,0.000,0.000,0.000,-0.960,15.249,2.111,-0.180,0.605,0.141,-0.27,-0.46,1,0
30406,0.105,0.004,1.012,-0.218,3.336,0.116,0.9948,0.0066,-0.0512,0.0877,0.238,-5.913,190.068,0.108,-1.564,2.111,0.000,0.000,0.000,-0.896,15.221,2.111,-0.153,0.587,0.107,-0.28,-0.30,1,0
30424,0.105,0.004,1.012,-0.194,3.309,0.236,0.9948,0.0067,-0.0513,0.0878,0.249,-5.924,190.071,0.108,-1.564,2.111,0.000,0.000,0.000,-0.661,15.160,2.111,-0.115,0.604,0.079,-0.28,-0.29,1,0
30444,0.104,0.005,1.012,-0.273,3.528,0.054,0.9948,0.0068,-0.0508,0.0878,0.267,-5.865,190.072,0.108,-1.564,2.111,0.000,0.000,0.000,-0.892,15.029,2.111,-0.107,0.631,0.082,-0.30,-0.33,1,0
30466,0.103,0.006,1.012,0.076,3.775,-0.123,0.9948,0.0071,-0.0503,0.0878,0.309,-5.813,190.067,0.108,-1.564,2.111,0.000,0.000,0.000,-1.116,14.941,2.111,-0.151,0.634,0.110,-0.32,-0.86,1,0
30490,0.102,0.006,1.012,-0.003,3.947,-0.031,0.9949,0.0074,-0.0497,0.0877,0.345,-5.754,190.062,0.108,-1.564,2.111,0.000,0.000,0.000,-1.323,14.627,2.111,-0.193,0.630,0.118,-0.33,-0.75,1,0
30953,0.071,0.005,1.011,-0.154,2.229,-0.127,0.9955,0.0053,-0.0349,0.0878,0.254,-4.032,190.066,0.108,-1.564,2.111,0.000,0.000,0.000,-0.828,8.666,2.111,-0.184,0.671,0.101,-0.46,-0.29,1,0
31316,0.064,0.004,1.012,0.085,-1.867,-0.041,0.9956,0.0048,-0.0311,0.0878,0.240,-3.596,190.076,0.108,-1.564,2.111,0.000,0.000,0.000,-0.770,7.136,2.111,-0.175,0.927,0.119,-0.50,0.15,1,0
31338,0.064,0.004,1.012,0.147,-1.978,0.007,0.9956,0.0046,-0.0315,0.0878,0.208,-3.638,190.078,0.108,-1.564,2.111,0.000,0.000,0.000,-0.427,7.169,2.111,-0.174,0.939,0.115,-0.49,0.20,1,0
31364,0.065,0.004,1.012,0.158,-2.353,-0.003,0.9956,0.0045,-0.0315,0.0878,0.201,-3.642,190.078,0.108,-1.564,2.111,0.000,0.000,0.000,-0.481,7.234,2.111,-0.169,0.952,0.113,-0.47,0.75,1,0
31386,0.065,0.004,1.012,0.165,-2.590,0.092,0.9956,0.0050,-0.0319,0.0879,0.248,-3.689,190.077,0.108,-1.564,2.111,0.000,0.000,0.000,-0.704,7.350,2.111,-0.185,0.963,0.098,-0.45,0.71,1,0
31402,0.066,0.004,1.012,-0.006,-2.721,0.089,0.9956,0.0049,-0.0324,0.0879,0.238,-3.749,190.079,0.108,-1.564,2.111,0.000,0.000,0.000,-0.721,7.527,2.111,-0.190,0.968,0.096,-0.44,0.68,1,0
31416,0.067,0.003,1.012,-0.002,-2.945,0.215,0.9956,0.0045,-0.0327,0.0879,0.188,-3.780,190.085,0.108,-1.564,2.111,0.000,0.000,0.000,-0.561,7.690,2.111,-0.178,0.972,0.090,-0.43,0.65,1,0
31427,0.067,0.003,1.012,0.043,-2.995,0.230,0.9956,0.0043,-0.0329,0.0879,0.155,-3.796,190.089,0.108,-1.564,2.111,0.000,0.000,0.000,-0.422,7.679,2.111,-0.170,0.975,0.085,-0.43,0.65,1,0
31452,0.068,0.002,1.012,-0.155,-3.089,0.305,0.9956,0.0037,-0.0332,0.0880,0.085,-3.829,190.099,0.108,-1.564,2.111,0.000,0.000,0.000,0.000,7.838,2.111,-0.132,0.979,0.073,-0.42,0.65,1,0
31480,0.069,0.003,1.012,-0.067,-3.093,0.346,0.9955,0.0043,-0.0339,0.0881,0.145,-3.914,190.108,0.108,-1.564,2.111,0.000,0.000,0.000,-0.086,8.163,2.111,-0.076,0.986,0.059,-0.40,0.54,1,0
31950,0.066,-0.001,1.012,-1.041,4.135,2.244,0.9958,0.0016,-0.0321,0.0855,-0.133,-3.686,189.824,0.108,-1.564,2.111,0.000,0.000,0.000,2.390,7.475,2.111,0.042,0.059,0.017,-0.41,0.11,1,0
31963,0.063,0.002,1.014,-2.044,0.672,3.936,0.9958,0.0027,-0.0316,0.0860,-0.008,-3.632,189.867,0.108,-1.564,2.111,0.000,0.000,0.000,0.822,7.300,2.111,0.112,0.200,-0.135,-0.41,-0.11,1,0
31983,0.060,0.008,1.012,-0.018,-2.156,5.226,0.9957,0.0041,-0.0307,0.0867,0.168,-3.543,189.948,0.108,-1.564,2.111,0.000,0.000,0.000,-0.121,6.955,2.111,-0.004,0.346,-0.293,-0.41,-0.10,1,0
32155,0.057,-0.004,1.011,-0.314,1.016,-0.717,0.9954,0.0004,-0.0282,0.0912,-0.250,-3.222,190.482,0.108,-1.564,2.111,0.000,0.000,0.000,1.915,5.702,2.111,-0.019,0.271,0.447,-0.42,-0.06,1,0
32175,0.058,-0.006,1.012,-0.540,0.223,0.044,0.9954,-0.0005,-0.0288,0.0912,-0.359,-3.277,190.483,0.108,-1.564,2.111,0.000,0.000,0.000,2.394,5.791,2.111,0.107,0.376,0.362,-0.42,-0.05,1,0
32192,0.057,-0.006,1.012,-0.472,-0.167,-0.109,0.9954,-0.0003,-0.0284,0.0912,-0.329,-3.241,190.480,0.108,-1.564,2.111,0.000,0.000,0.000,2.543,5.895,2.111,0.186,0.480,0.305,-0.42,-0.05,1,0
32206,0.057,-0.001,1.013,0.193,-0.727,0.163,0.9954,0.0011,-0.0283,0.0912,-0.172,-3.236,190.471,0.108,-1.564,2.111,0.000,0.000,0.000,2.078,5.803,2.111,0.140,0.548,0.266,-0.42,-0.05,1,0
32226,0.057,0.001,1.012,0.062,-0.781,0.467,0.9954,0.0027,-0.0282,0.0912,0.015,-3.245,190.467,0.215,-1.564,2.111,0.000,0.000,0.000,1.373,5.861,2.111,0.043,0.616,0.198,-0.42,-0.05,1,0
32244,0.057,-0.001,1.013,-0.882,-0.272,0.584,0.9954,0.0019,-0.0279,0.0913,-0.071,-3.200,190.481,0.108,-1.564,2.111,0.000,0.000,0.000,1.125,5.823,2.111,0.042,0.615,0.143,-0.42,-0.05,1,0
32262,0.057,-0.000,1.013,-2.282,-0.591,1.166,0.9954,0.0025,-0.0280,0.0914,-0.013,-3.219,190.491,0.108,-1.564,2.111,0.000,0.000,0.000,0.818,5.767,2.111,0.100,0.642,0.082,-0.42,-0.03,1,0
32281,0.057,0.000,1.013,-2.467,-0.631,1.355,0.9954,0.0027,-0.0279,0.0916,0.011,-3.207,190.517,0.215,-1.564,2.111,0.000,0.000,0.000,1.195,5.671,2.111,0.147,0.687,-0.001,-0.42,0.05,1,0
32298,0.058,0.002,1.012,-1.562,-0.324,0.849,0.9954,0.0035,-0.0284,0.0917,0.095,-3.279,190.529,0.108,-1.564,2.111,0.000,0.000,0.000,0.459,5.946,2.111,0.116,0.693,0.026,-0.42,0.05,1,0
32313,0.057,0.003,1.011,-0.701,0.175,0.882,0.9954,0.0039,-0.0280,0.0918,0.146,-3.241,190.537,0.108,-1.564,2.111,0.000,0.000,0.000,-0.210,5.779,2.111,0.022,0.675,0.051,-0.42,0.09,1,0
32334,0.057,-0.000,1.012,-0.568,0.606,1.086,0.9954,0.0026,-0.0281,0.0920,-0.003,-3.234,190.565,0.108,-1.564,2.111,0.000,0.000,0.000,0.346,5.849,2.111,-0.081,0.606,0.042,-0.41,0.50,1,0
32346,0.057,-0.003,1.013,-1.060,0.743,1.067,0.9953,0.0013,-0.0282,0.0922,-0.149,-3.232,190.586,0.108,-1.564,2.111,0.000,0.000,0.000,1.023,5.798,2.111,-0.049,0.577,0.039,-0.40,0.50,1,0
32374,0.058,-0.004,1.013,-2.776,1.424,1.136,0.9953,0.0005,-0.0287,0.0925,-0.243,-3.277,190.622,0.215,-1.564,2.111,0.000,0.000,0.000,2.052,6.042,2.111,0.196,0.557,0.024,-0.39,0.40,1,0
32388,0.058,-0.001,1.014,-2.964,1.616,0.771,0.9953,0.0014,-0.0285,0.0925,-0.143,-3.263,190.626,0.108,-1.564,2.111,0.000,0.000,0.000,2.367,5.979,2.111,0.280,0.526,0.047,-0.39,0.40,1,0
32406,0.057,0.001,1.014,-2.747,2.032,0.685,0.9953,0.0027,-0.0278,0.0926,0.008,-3.197,190.626,0.108,-1.564,2.111,0.000,0.000,0.000,0.829,5.803,2.111,0.239,0.474,0.092,-0.39,-0.02,1,0
32424,0.056,0.000,1.015,-3.582,2.725,0.806,0.9953,0.0026,-0.0277,0.0927,0.007,-3.187,190.638,0.108,-1.564,2.111,0.000,0.000,0.000,0.435,5.634,2.111,0.181,0.402,0.090,-0.39,-0.01,1,0
32444,0.057,-0.001,1.015,-4.381,2.505,1.076,0.9953,0.0018,-0.0279,0.0928,-0.091,-3.198,190.653,0.108,-1.564,2.111,0.000,0.000,0.000,0.851,5.720,2.111,0.248,0.377,0.069,-0.39,-0.01,1,0
32466,0.056,-0.003,1.015,-4.748,0.655,0.883,0.9953,0.0008,-0.0275,0.0930,-0.198,-3.147,190.681,0.108,-1.564,2.111,0.000,0.000,0.000,1.613,5.646,2.111,0.402,0.510,0.044,-0.39,0.01,1,0
32490,0.055,-0.007,1.015,-5.037,0.520,0.621,0.9953,-0.0011,-0.0275,0.0931,-0.414,-3.122,190.703,0.108,-1.564,2.111,0.000,0.000,0.000,2.908,5.438,2.111,0.455,0.617,0.093,-0.38,0.23,1,0
32886,0.051,-0.004,1.013,1.084,-2.372,-0.746,0.9947,0.0003,-0.0254,0.1000,-0.259,-2.901,191.491,0.108,-1.564,2.111,0.000,0.000,0.000,1.870,4.629,2.111,-0.017,0.876,0.312,-0.34,-0.03,1,0
32905,0.052,-0.005,1.013,1.075,-2.187,-0.818,0.9947,0.0001,-0.0260,0.0999,-0.281,-2.962,191.478,0.108,-1.564,2.111,0.000,0.000,0.000,2.267,4.714,2.111,-0.012,0.890,0.308,-0.34,-0.01,1,0
32922,0.053,-0.006,1.013,1.594,-1.949,-0.173,0.9946,-0.0005,-0.0264,0.0999,-0.360,-3.004,191.476,0.108,-1.564,2.111,0.000,0.000,0.000,2.571,4.939,2.111,-0.017,0.876,0.242,-0.34,0.13,1,0
32937,0.053,-0.009,1.011,2.473,-1.729,0.337,0.9946,-0.0017,-0.0266,0.0999,-0.494,-3.011,191.488,0.108,-1.564,2.111,0.000,0.000,0.000,2.948,5.033,2.111,-0.022,0.861,0.159,-0.33,0.12,1,0
32960,0.054,-0.009,1.011,3.275,-1.538,0.606,0.9946,-0.0017,-0.0266,0.1000,-0.498,-3.017,191.501,0.108,-1.564,2.111,0.000,0.000,0.000,3.626,5.047,2.111,-0.049,0.832,0.080,-0.33,0.11,1,0
32986,0.054,-0.007,1.012,2.882,-0.978,0.431,0.9946,-0.0006,-0.0270,0.1002,-0.377,-3.067,191.517,0.108,-1.564,2.111,0.000,0.000,0.000,2.747,5.085,2.111,-0.109,0.767,0.048,-0.33,0.10,1,0
33002,0.054,-0.006,1.011,2.061,-0.698,0.174,0.9946,-0.0002,-0.0268,0.1003,-0.307,-3.046,191.520,0.108,-1.564,2.111,0.000,0.000,0.000,2.558,5.246,2.111,-0.061,0.736,0.078,-0.33,-0.02,1,0
33203,0.053,0.001,1.013,0.129,3.104,-0.452,0.9946,0.0031,-0.0261,0.1000,0.056,-3.014,191.480,0.108,-1.564,2.111,0.000,0.000,0.000,0.394,5.091,2.111,-0.035,0.385,0.186,-0.38,-0.58,1,0
33220,0.052,0.002,1.012,0.329,2.932,-0.332,0.9947,0.0035,-0.0257,0.0999,0.108,-2.970,191.471,0.108,-1.564,2.111,0.000,0.000,0.000,0.156,5.015,2.111,-0.046,0.429,0.174,-0.39,-0.55,1,0
33235,0.052,0.000,1.013,0.612,2.844,-0.059,0.9947,0.0028,-0.0256,0.0999,0.024,-2.953,191.473,0.108,-1.564,2.111,0.000,0.000,0.000,0.327,4.848,2.111,-0.074,0.455,0.146,-0.39,-0.46,1,0
33247,0.052,-0.001,1.013,0.476,2.894,0.120,0.9947,0.0019,-0.0255,0.1000,-0.075,-2.924,191.480,0.108,-1.564,2.111,0.000,0.000,0.000,0.778,4.841,2.111,-0.060,0.472,0.114,-0.39,-0.46,1,0
33275,0.050,-0.002,1.013,0.139,2.783,0.224,0.9947,0.0015,-0.0248,0.1000,-0.109,-2.840,191.487,0.215,-1.564,2.111,0.000,0.000,0.000,1.284,4.446,2.111,0.052,0.479,0.071,-0.38,0.18,1,0
33300,0.050,-0.001,1.013,0.123,2.798,-0.336,0.9947,0.0018,-0.0244,0.1000,-0.072,-2.805,191.486,0.108,-1.564,2.111,0.000,0.000,0.000,1.315,4.378,2.111,0.092,0.491,0.102,-0.38,0.12,1,0
33316,0.049,0.002,1.013,0.204,2.759,-0.450,0.9947,0.0034,-0.0238,0.0999,0.117,-2.753,191.467,0.215,-1.564,2.111,0.000,0.000,0.000,0.925,4.149,2.111,0.067,0.491,0.160,-0.39,-0.30,1,0
33336,0.048,0.001,1.012,0.233,2.658,0.127,0.9947,0.0031,-0.0234,0.0999,0.089,-2.706,191.466,0.108,-1.564,2.111,0.000,0.000,0.000,0.000,4.060,2.111,0.001,0.508,0.122,-0.39,-0.29,1,0
33354,0.047,-0.000,1.012,-0.103,2.540,0.240,0.9947,0.0023,-0.0230,0.0999,0.002,-2.649,191.474,0.108,-1.564,2.111,0.000,0.000,0.000,0.404,3.897,2.111,-0.006,0.508,0.085,-0.40,-0.25,1,0
33375,0.046,-0.000,1.012,-0.007,2.139,0.394,0.9947,0.0022,-0.0229,0.1000,-0.007,-2.634,191.481,0.108,-1.564,2.111,0.000,0.000,0.000,0.756,3.736,2.111,0.025,0.531,0.055,-0.40,-0.06,1,0
33394,0.045,-0.001,1.012,0.163,1.879,0.185,0.9947,0.0020,-0.0223,0.1000,-0.023,-2.562,191.485,0.108,-1.564,2.111,0.000,0.000,0.000,0.690,3.558,2.111,0.029,0.561,0.057,-0.40,-0.06,1,0
33404,0.045,0.001,1.013,0.168,1.632,-0.322,0.9947,0.0025,-0.0218,0.1000,0.039,-2.516,191.481,0.108,-1.564,2.111,0.000,0.000,0.000,0.514,3.428,2.111,0.022,0.588,0.099,-0.40,-0.06,1,0
33426,0.044,0.003,1.012,0.312,1.517,-0.415,0.9948,0.0037,-0.0216,0.0999,0.176,-2.501,191.466,0.108,-1.564,2.111,0.000,0.000,0.000,-0.139,3.268,2.111,-0.036,0.613,0.158,-0.41,-0.08,1,0
33434,0.044,0.003,1.012,0.285,1.667,-0.258,0.9948,0.0036,-0.0212,0.0999,0.169,-2.464,191.464,0.108,-1.564,2.111,0.000,0.000,0.000,-0.379,3.240,2.111,-0.058,0.609,0.156,-0.41,-0.27,1,0
33456,0.043,0.001,1.012,0.134,1.799,0.028,0.9948,0.0024,-0.0211,0.0999,0.030,-2.438,191.469,0.108,-1.564,2.111,0.000,0.000,0.000,0.109,3.039,2.111,-0.077,0.561,0.114,-0.41,-0.26,1,0
33480,0.042,0.000,1.013,0.010,1.210,0.230,0.9948,0.0023,-0.0208,0.0999,0.019,-2.402,191.471,0.108,-1.564,2.111,0.000,0.000,0.000,0.602,2.891,2.111,-0.017,0.599,0.089,-0.42,-0.25,1,0
33492,0.042,0.000,1.012,0.048,1.122,0.334,0.9948,0.0022,-0.0206,0.0999,0.015,-2.376,191.475,0.108,-1.564,2.111,0.000,0.000,0.000,0.505,2.860,2.111,0.002,0.619,0.069,-0.42,-0.27,1,0
33514,0.041,0.001,1.011,0.200,1.011,-0.078,0.9948,0.0022,-0.0204,0.1000,0.020,-2.348,191.478,0.108,-1.564,2.111,0.000,0.000,0.000,0.435,2.674,2.111,-0.003,0.625,0.077,-0.44,-0.53,1,0
33942,0.040,0.002,1.011,0.029,-1.889,0.398,0.9948,0.0030,-0.0195,0.0999,0.117,-2.257,191.466,0.108,-1.564,2.111,0.000,0.000,0.000,-0.141,2.375,2.111,-0.046,0.837,0.077,-0.36,1.01,1,0
33964,0.040,0.002,1.011,0.130,-2.134,0.057,0.9948,0.0028,-0.0197,0.0999,0.094,-2.280,191.472,0.108,-1.564,2.111,0.000,0.000,0.000,0.111,2.511,2.111,-0.035,0.869,0.082,-0.36,-0.25,1,0
33980,0.041,0.002,1.011,0.047,-2.266,-0.163,0.9948,0.0029,-0.0199,0.0999,0.102,-2.305,191.471,0.108,-1.564,2.111,0.000,0.000,0.000,-0.075,2.615,2.111,0.001,0.877,0.114,-0.37,-0.24,1,0
33993,0.041,0.003,1.011,0.578,-2.341,-0.229,0.9948,0.0031,-0.0200,0.0999,0.131,-2.311,191.468,0.108,-1.564,2.111,0.000,0.000,0.000,-0.129,2.609,2.111,-0.031,0.888,0.131,-0.37,-0.23,1,0
34026,0.042,0.003,1.011,0.057,-2.212,0.034,0.9948,0.0037,-0.0206,0.0999,0.186,-2.388,191.460,0.108,-1.564,2.111,0.000,0.000,0.000,0.222,2.722,2.111,-0.058,0.895,0.132,-0.37,-0.19,1,0
34254,0.052,0.004,1.012,-0.009,-2.814,0.151,0.9947,0.0045,-0.0253,0.0999,0.224,-2.932,191.469,0.108,-1.564,2.111,0.000,0.000,0.000,-0.679,4.758,2.111,-0.110,0.924,0.091,-0.35,-0.09,1,0
34274,0.053,0.002,1.012,-0.190,-2.909,0.300,0.9946,0.0034,-0.0259,0.1000,0.087,-2.990,191.481,0.108,-1.564,2.111,0.000,0.000,0.000,-0.106,4.959,2.111,-0.078,0.934,0.068,-0.36,-0.13,1,0
34292,0.054,0.000,1.012,0.086,-2.975,0.112,0.9946,0.0029,-0.0264,0.1001,0.026,-3.039,191.488,0.108,-1.564,2.111,0.000,0.000,0.000,0.486,5.205,2.111,-0.041,0.945,0.071,-0.37,-0.52,1,0
34318,0.055,0.002,1.012,0.031,-3.164,-0.017,0.9946,0.0040,-0.0268,0.1000,0.149,-3.107,191.481,0.108,-1.564,2.111,0.000,0.000,0.000,-0.124,5.318,2.111,-0.027,0.958,0.100,-0.38,-0.49,1,0
34334,0.056,0.003,1.012,0.437,-2.993,-0.268,0.9946,0.0044,-0.0273,0.1000,0.193,-3.166,191.477,0.108,-1.564,2.111,0.000,0.000,0.000,-0.340,5.443,2.111,-0.071,0.963,0.122,-0.38,-0.41,1,0
34352,0.056,0.004,1.012,0.181,-2.897,-0.208,0.9946,0.0048,-0.0275,0.1000,0.236,-3.192,191.472,0.108,-1.564,2.111,0.000,0.000,0.000,-0.476,5.661,2.111,-0.088,0.965,0.135,-0.38,-0.41,1,0
34367,0.057,0.004,1.012,0.213,-2.995,0.056,0.9946,0.0046,-0.0280,0.1000,0.207,-3.250,191.472,0.108,-1.564,2.111,0.000,0.000,0.000,-0.715,5.825,2.111,-0.112,0.971,0.120,-0.38,0.13,1,0
34386,0.058,0.002,1.012,0.196,-3.049,0.196,0.9946,0.0039,-0.0286,0.1000,0.112,-3.309,191.480,0.108,-1.564,2.111,0.000,0.000,0.000,-0.149,6.027,2.111,-0.098,0.977,0.091,-0.38,0.12,1,0
34404,0.059,0.002,1.012,-0.036,-3.003,0.410,0.9945,0.0039,-0.0291,0.1001,0.109,-3.367,191.486,0.108,-1.564,2.111,0.000,0.000,0.000,-0.139,6.230,2.111,-0.057,0.980,0.065,-0.37,0.13,1,0
34426,0.060,0.002,1.012,0.099,-2.936,0.202,0.9945,0.0040,-0.0295,0.1001,0.122,-3.407,191.492,0.108,-1.564,2.111,0.000,0.000,0.000,0.000,6.456,2.111,-0.043,0.984,0.061,-0.37,0.21,1,0
34442,0.061,0.003,1.012,-0.080,-2.826,0.063,0.9945,0.0046,-0.0299,0.1001,0.185,-3.459,191.490,0.108,-1.564,2.111,0.000,0.000,0.000,-0.415,6.579,2.111,-0.049,0.982,0.084,-0.37,0.20,1,0
34458,0.062,0.004,1.012,0.310,-3.106,-0.106,0.9945,0.0047,-0.0302,0.1001,0.192,-3.494,191.490,0.108,-1.564,2.111,0.000,0.000,0.000,-0.576,6.686,2.111,-0.086,0.985,0.107,-0.37,0.18,1,0
34474,0.063,0.004,1.012,0.229,-2.868,-0.206,0.9945,0.0048,-0.0307,0.1001,0.194,-3.553,191.487,0.108,-1.564,2.111,0.000,0.000,0.000,-0.491,6.921,2.111,-0.106,0.987,0.132,-0.36,0.05,1,0
34491,0.063,0.004,1.012,-0.054,-2.595,0.065,0.9945,0.0048,-0.0309,0.1001,0.195,-3.581,191.485,0.215,-1.564,2.111,0.000,0.000,0.000,0.000,7.045,2.111,-0.090,0.983,0.127,-0.36,0.05,1,0
34520,0.064,0.001,1.012,0.076,-2.614,0.102,0.9945,0.0035,-0.0315,0.1001,0.043,-3.632,191.500,0.215,-1.564,2.111,0.000,0.000,0.000,0.831,7.239,2.111,-0.039,0.977,0.089,-0.36,0.05,1,0
34537,0.065,0.002,1.012,-0.038,-2.585,0.187,0.9944,0.0043,-0.0322,0.1001,0.118,-3.723,191.496,0.215,-1.564,2.111,0.000,0.000,0.000,0.764,7.466,2.111,0.032,0.981,0.094,-0.36,0.07,1,0
34974,0.079,0.001,1.012,0.124,0.597,-0.252,0.9942,0.0044,-0.0384,0.1003,0.065,-4.428,191.517,0.108,-1.564,2.111,0.000,0.000,0.000,0.346,10.047,2.111,-0.035,0.867,0.122,-0.38,-0.39,1,0
34987,0.079,0.002,1.011,0.021,0.804,-0.130,0.9942,0.0049,-0.0385,0.1002,0.122,-4.448,191.509,0.108,-1.564,2.111,0.000,0.000,0.000,0.160,10.040,2.111,-0.011,0.842,0.129,-0.39,-0.39,1,0
35012,0.079,0.003,1.011,0.138,0.854,0.146,0.9942,0.0052,-0.0385,0.1002,0.150,-4.450,191.508,0.108,-1.564,2.111,0.000,0.000,0.000,-0.240,10.075,2.111,-0.029,0.841,0.095,-0.39,-0.02,1,0
35033,0.079,0.003,1.012,-0.015,1.058,0.178,0.9942,0.0056,-0.0385,0.1002,0.196,-4.453,191.507,0.108,-1.564,2.111,0.000,0.000,0.000,-0.453,10.024,2.111,-0.051,0.836,0.081,-0.39,-0.02,1,0
35052,0.078,0.003,1.012,0.067,1.236,0.045,0.9942,0.0051,-0.0384,0.1003,0.138,-4.439,191.514,0.108,-1.564,2.111,0.000,0.000,0.000,-0.207,9.951,2.111,-0.065,0.825,0.087,-0.39,-0.03,1,0
35233,0.074,0.002,1.012,0.079,2.295,-0.065,0.9943,0.0048,-0.0364,0.1003,0.125,-4.205,191.511,0.108,-1.564,2.111,0.000,0.000,0.000,-0.112,9.241,2.111,-0.054,0.742,0.106,-0.40,0.25,1,0
35247,0.074,0.002,1.012,0.111,2.324,-0.009,0.9943,0.0050,-0.0361,0.1002,0.153,-4.173,191.509,0.108,-1.564,2.111,0.000,0.000,0.000,-0.213,9.134,2.111,-0.054,0.736,0.110,-0.39,0.25,1,0
35263,0.073,0.002,1.012,0.144,2.333,-0.113,0.9943,0.0046,-0.0358,0.1003,0.117,-4.140,191.511,0.108,-1.564,2.111,0.000,0.000,0.000,-0.043,9.042,2.111,-0.066,0.734,0.117,-0.38,0.46,1,0
35287,0.073,0.002,1.012,0.175,2.558,-0.259,0.9943,0.0047,-0.0356,0.1002,0.127,-4.111,191.505,0.108,-1.564,2.111,0.000,0.000,0.000,-0.131,8.970,2.111,-0.066,0.721,0.138,-0.37,0.43,1,0
35306,0.072,0.003,1.012,0.093,2.506,-0.084,0.9943,0.0050,-0.0354,0.1002,0.158,-4.096,191.499,0.108,-1.564,2.111,0.000,0.000,0.000,-0.120,8.781,2.111,-0.062,0.706,0.135,-0.36,0.41,1,0
35322,0.072,0.002,1.012,0.005,2.583,0.102,0.9943,0.0046,-0.0351,0.1002,0.120,-4.055,191.503,0.108,-1.564,2.111,0.000,0.000,0.000,-0.066,8.707,2.111,-0.061,0.712,0.108,-0.37,0.35,1,0
35342,0.071,0.002,1.012,-0.048,2.770,0.114,0.9944,0.0046,-0.0345,0.1002,0.124,-3.981,191.505,0.108,-1.564,2.111,0.000,0.000,0.000,0.000,8.480,2.111,-0.044,0.689,0.090,-0.37,-0.05,1,0
35355,0.070,0.002,1.012,0.014,2.745,0.004,0.9944,0.0045,-0.0344,0.1002,0.121,-3.977,191.506,0.108,-1.564,2.111,0.000,0.000,0.000,0.000,8.427,2.111,-0.036,0.681,0.092,-0.37,-0.05,1,0
35372,0.070,0.002,1.012,-0.001,2.624,-0.013,0.9944,0.0046,-0.0341,0.1002,0.130,-3.939,191.505,0.108,-1.564,2.111,0.000,0.000,0.000,-0.151,8.361,2.111,-0.039,0.685,0.097,-0.37,-0.05,1,0
35394,0.069,0.002,1.012,0.160,2.753,-0.121,0.9944,0.0045,-0.0338,0.1002,0.127,-3.903,191.504,0.108,-1.564,2.111,0.000,0.000,0.000,-0.192,8.160,2.111,-0.061,0.692,0.112,-0.36,0.22,1,0
35415,0.068,0.002,1.012,0.079,2.953,-0.096,0.9944,0.0043,-0.0334,0.1002,0.112,-3.859,191.504,0.108,-1.564,2.111,0.000,0.000,0.000,-0.111,7.966,2.111,-0.058,0.672,0.114,-0.36,0.21,1,0
35432,0.068,0.002,1.012,0.055,2.790,-0.055,0.9944,0.0046,-0.0331,0.1002,0.145,-3.828,191.500,0.108,-1.564,2.111,0.000,0.000,0.000,-0.211,7.903,2.111,-0.053,0.670,0.117,-0.35,0.17,1,0
35446,0.067,0.003,1.012,0.013,2.813,0.255,0.9944,0.0045,-0.0326,0.1002,0.141,-3.775,191.503,0.108,-1.564,2.111,0.000,0.000,0.000,-0.356,7.815,2.111,-0.060,0.677,0.094,-0.36,0.17,1,0
35455,0.066,0.002,1.012,0.016,2.819,0.209,0.9944,0.0040,-0.0325,0.1002,0.083,-3.748,191.509,0.108,-1.564,2.111,0.000,0.000,0.000,-0.078,7.650,2.111,-0.062,0.678,0.082,-0.36,-0.07,1,0
35480,0.065,0.002,1.011,0.178,2.955,-0.268,0.9945,0.0042,-0.0315,0.1002,0.119,-3.643,191.504,0.108,-1.564,2.111,0.000,0.000,0.000,-0.095,7.354,2.111,-0.037,0.660,0.124,-0.36,-0.07,1,0
35498,0.064,0.003,1.012,0.077,2.953,0.005,0.9945,0.0048,-0.0312,0.1002,0.191,-3.609,191.498,0.108,-1.564,2.111,0.000,0.000,0.000,-0.412,7.277,2.111,-0.060,0.646,0.126,-0.35,-0.00,1,0
35520,0.063,0.003,1.012,-0.030,3.101,0.047,0.9945,0.0043,-0.0308,0.1002,0.139,-3.567,191.503,0.108,-1.564,2.111,0.000,0.000,0.000,-0.297,7.037,2.111,-0.077,0.614,0.099,-0.34,0.52,1,0
35534,0.062,0.002,1.011,-0.082,2.938,0.013,0.9945,0.0038,-0.0305,0.1002,0.088,-3.518,191.507,0.215,-1.564,2.111,0.000,0.000,0.000,-0.047,6.908,2.111,-0.056,0.620,0.101,-0.33,0.49,1,0
35556,0.061,0.002,1.012,0.082,2.915,-0.063,0.9945,0.0041,-0.0299,0.1002,0.122,-3.462,191.503,0.108,-1.564,2.111,0.000,0.000,0.000,0.653,6.655,2.111,0.001,0.624,0.113,-0.32,0.47,1,0
35967,0.042,0.001,1.011,0.077,1.316,0.329,0.9947,0.0024,-0.0206,0.1004,0.038,-2.378,191.522,0.108,-1.564,2.111,0.000,0.000,0.000,0.000,2.990,2.111,-0.051,0.636,0.060,-0.27,0.06,1,0
35984,0.043,0.000,1.012,-0.052,1.102,0.039,0.9947,0.0023,-0.0207,0.1004,0.018,-2.391,191.525,0.108,-1.564,2.111,0.000,0.000,0.000,0.491,2.974,2.111,-0.025,0.650,0.070,-0.28,-0.20,1,0
36006,0.042,0.001,1.012,0.087,0.800,-0.034,0.9947,0.0023,-0.0204,0.1004,0.031,-2.356,191.524,0.108,-1.564,2.111,0.000,0.000,0.000,0.308,2.800,2.111,-0.005,0.700,0.100,-0.28,-0.19,1,0
36025,0.041,0.001,1.012,0.090,1.132,-0.205,0.9947,0.0027,-0.0203,0.1003,0.075,-2.343,191.519,0.108,-1.564,2.111,0.000,0.000,0.000,0.395,2.723,2.111,-0.016,0.684,0.122,-0.29,-0.20,1,0
36042,0.041,0.002,1.011,0.253,0.819,0.023,0.9947,0.0034,-0.0201,0.1003,0.155,-2.333,191.514,0.108,-1.564,2.111,0.000,0.000,0.000,-0.173,2.730,2.111,-0.042,0.680,0.121,-0.29,-0.36,1,0
36072,0.040,0.001,1.012,0.217,0.898,0.076,0.9948,0.0025,-0.0196,0.1004,0.059,-2.263,191.522,0.108,-1.564,2.111,0.000,0.000,0.000,0.061,2.552,2.111,-0.077,0.672,0.089,-0.30,-0.35,1,0
36323,0.039,0.002,1.011,0.207,-1.114,0.276,0.9948,0.0031,-0.0188,0.1005,0.131,-2.182,191.532,0.108,-1.564,2.111,0.000,0.000,0.000,-0.228,2.193,2.111,-0.078,0.849,0.088,-0.26,0.42,1,0
36344,0.039,0.001,1.011,0.055,-1.132,0.240,0.9948,0.0026,-0.0188,0.1005,0.074,-2.178,191.538,0.108,-1.564,2.111,0.000,0.000,0.000,0.040,2.134,2.111,-0.064,0.831,0.067,-0.25,0.40,1,0
36366,0.039,0.001,1.012,0.028,-1.571,0.071,0.9947,0.0024,-0.0193,0.1005,0.057,-2.226,191.541,0.108,-1.564,2.111,0.000,0.000,0.000,0.249,2.310,2.111,-0.019,0.860,0.084,-0.24,0.41,1,0
36386,0.039,0.002,1.011,0.152,-1.716,-0.156,0.9947,0.0031,-0.0193,0.1005,0.128,-2.234,191.537,0.108,-1.564,2.111,0.000,0.000,0.000,0.193,2.441,2.111,-0.027,0.881,0.103,-0.23,0.59,1,0
36403,0.040,0.003,1.012,0.024,-1.512,-0.031,0.9947,0.0036,-0.0196,0.1005,0.183,-2.271,191.533,0.108,-1.564,2.111,0.000,0.000,0.000,-0.352,2.484,2.111,-0.051,0.882,0.120,-0.22,0.56,1,0
36425,0.041,0.002,1.011,0.234,-1.759,0.208,0.9947,0.0030,-0.0199,0.1005,0.119,-2.301,191.539,0.108,-1.564,2.111,0.000,0.000,0.000,-0.233,2.525,2.111,-0.085,0.881,0.087,-0.22,0.47,1,0
36441,0.041,0.002,1.011,0.173,-2.003,0.055,0.9947,0.0028,-0.0201,0.1005,0.086,-2.318,191.542,0.108,-1.564,2.111,0.000,0.000,0.000,0.074,2.544,2.111,-0.068,0.898,0.089,-0.22,-0.14,1,0
36456,0.041,0.001,1.011,0.025,-2.029,0.189,0.9947,0.0026,-0.0202,0.1006,0.067,-2.338,191.545,0.108,-1.564,2.111,0.000,0.000,0.000,0.119,2.686,2.111,-0.055,0.910,0.086,-0.22,-0.14,1,0
36475,0.042,0.001,1.011,0.074,-2.204,0.032,0.9947,0.0026,-0.0203,0.1006,0.062,-2.345,191.547,0.108,-1.564,2.111,0.000,0.000,0.000,0.340,2.768,2.111,-0.037,0.924,0.090,-0.22,-0.05,1,0
36496,0.042,0.002,1.012,0.067,-2.274,0.036,0.9947,0.0031,-0.0206,0.1006,0.117,-2.389,191.546,0.108,-1.564,2.111,0.000,0.000,0.000,0.000,2.860,2.111,-0.036,0.939,0.102,-0.20,0.64,1,0
36506,0.042,0.002,1.012,0.243,-2.278,0.000,0.9947,0.0034,-0.0207,0.1006,0.144,-2.403,191.545,0.108,-1.564,2.111,0.000,0.000,0.000,0.064,2.861,2.111,-0.044,0.944,0.106,-0.20,0.64,1,0
36523,0.043,0.003,1.011,0.135,-2.385,0.005,0.9947,0.0035,-0.0210,0.1006,0.153,-2.429,191.544,0.108,-1.564,2.111,0.000,0.000,0.000,-0.251,2.984,2.111,-0.064,0.950,0.111,-0.19,0.61,1,0
36538,0.043,0.002,1.011,0.154,-2.433,0.087,0.9947,0.0033,-0.0211,0.1006,0.134,-2.446,191.546,0.108,-1.564,2.111,0.000,0.000,0.000,-0.212,2.991,2.111,-0.073,0.957,0.104,-0.18,0.54,1,0
36556,0.044,0.002,1.011,0.249,-2.506,0.098,0.9947,0.0032,-0.0214,0.1006,0.120,-2.480,191.548,0.108,-1.564,2.111,0.000,0.000,0.000,-0.107,3.214,2.111,-0.076,0.961,0.099,-0.18,0.17,1,0
36576,0.044,0.002,1.011,0.000,-2.655,0.204,0.9947,0.0030,-0.0218,0.1006,0.095,-2.526,191.553,0.108,-1.564,2.111,0.000,0.000,0.000,0.137,3.235,2.111,-0.063,0.969,0.089,-0.18,0.16,1,0
36998,0.064,0.003,1.011,0.266,-2.632,-0.032,0.9944,0.0045,-0.0310,0.1009,0.158,-3.584,191.582,19.731,-1.564,2.111,0.000,0.000,0.000,67.787,7.044,2.111,0.855,0.984,0.117,-0.14,0.49,1,0
37018,0.065,0.002,1.011,-0.013,-2.452,0.000,0.9944,0.0044,-0.0322,0.1009,0.126,-3.719,191.584,28.602,-1.564,2.111,0.000,0.000,0.000,90.000,7.315,2.111,0.891,0.988,0.110,-0.14,-0.19,1,0
37043,0.066,0.003,1.012,-0.023,-2.379,0.117,0.9944,0.0047,-0.0324,0.1009,0.156,-3.751,191.584,30.538,-1.564,2.111,0.000,0.000,0.000,90.000,7.420,2.111,0.918,0.991,0.099,-0.15,-0.18,1,0
37067,0.067,0.003,1.012,0.021,-2.253,0.082,0.9943,0.0049,-0.0331,0.1009,0.176,-3.832,191.586,31.828,-1.564,2.111,0.000,0.000,0.000,90.000,7.576,2.111,0.934,0.986,0.092,-0.14,-0.12,1,0
37094,0.068,0.003,1.012,0.114,-2.237,0.069,0.9943,0.0049,-0.0334,0.1009,0.168,-3.871,191.588,32.473,-1.564,2.111,0.000,0.000,0.000,90.000,7.749,2.111,0.948,0.989,0.096,-0.14,0.27,1,0
37312,0.076,0.003,1.012,0.123,-0.723,-0.055,0.9942,0.0054,-0.0373,0.1010,0.181,-4.311,191.592,35.699,-1.564,2.111,0.000,0.000,0.000,90.000,9.280,2.111,0.994,0.974,0.120,-0.13,-0.07,1,0
37324,0.076,0.003,1.012,0.153,-0.662,0.039,0.9942,0.0056,-0.0374,0.1010,0.204,-4.329,191.590,35.699,-1.564,2.111,0.000,0.000,0.000,90.000,9.314,2.111,0.995,0.973,0.108,-0.12,-0.02,1,0
37347,0.077,0.003,1.012,-0.064,-0.392,0.066,0.9941,0.0051,-0.0378,0.1010,0.145,-4.373,191.596,35.753,-1.564,2.111,0.000,0.000,0.000,90.000,9.358,2.111,0.996,0.968,0.099,-0.11,0.43,1,0
37372,0.078,0.002,1.012,0.071,-0.180,0.123,0.9941,0.0051,-0.0379,0.1010,0.145,-4.384,191.599,35.914,-1.564,2.111,0.000,0.000,0.000,90.000,9.521,2.111,0.997,0.961,0.092,-0.10,0.39,1,0
37396,0.078,0.002,1.012,0.013,-0.012,0.036,0.9941,0.0052,-0.0379,0.1010,0.148,-4.387,191.600,35.914,-1.564,2.111,0.000,0.000,0.000,90.000,9.511,2.111,0.997,0.954,0.094,-0.10,0.39,1,0
37416,0.078,0.003,1.012,0.213,0.260,-0.075,0.9941,0.0054,-0.0381,0.1010,0.179,-4.408,191.597,36.613,-1.564,2.111,0.000,0.000,0.000,90.000,9.627,2.111,0.998,0.940,0.109,-0.09,0.35,1,0
37432,0.078,0.003,1.012,0.099,0.423,-0.073,0.9941,0.0055,-0.0381,0.1010,0.187,-4.410,191.596,36.720,-1.564,2.111,0.000,0.000,0.000,90.000,9.597,2.111,0.998,0.931,0.117,-0.08,0.33,1,0
37452,0.078,0.003,1.012,0.152,0.570,-0.040,0.9941,0.0051,-0.0382,0.1010,0.144,-4.415,191.598,36.882,-1.564,2.111,0.000,0.000,0.000,90.000,9.645,2.111,0.999,0.923,0.114,-0.08,0.31,1,0
37472,0.078,0.002,1.013,0.046,0.708,-0.103,0.9941,0.0052,-0.0383,0.1010,0.145,-4.431,191.597,37.419,-1.564,2.111,0.000,0.000,0.000,90.000,9.647,2.111,0.999,0.921,0.117,-0.07,0.31,1,0
37494,0.078,0.003,1.013,-0.060,0.901,0.049,0.9941,0.0053,-0.0382,0.1010,0.159,-4.415,191.596,37.419,-1.564,2.111,0.000,0.000,0.000,90.000,9.618,2.111,0.999,0.904,0.110,-0.07,0.24,1,0
37512,0.078,0.003,1.012,0.109,0.989,-0.001,0.9941,0.0052,-0.0382,0.1010,0.147,-4.412,191.597,37.312,-1.564,2.111,0.000,0.000,0.000,90.000,9.538,2.111,0.999,0.895,0.104,-0.07,0.23,1,0
37524,0.078,0.003,1.013,-0.049,1.126,-0.060,0.9941,0.0056,-0.0383,0.1010,0.196,-4.431,191.592,35.914,-1.564,2.111,0.000,0.000,0.000,90.000,9.674,2.111,0.999,0.892,0.109,-0.06,0.20,1,0
37544,0.078,0.003,1.012,0.074,1.257,0.150,0.9941,0.0055,-0.0382,0.1010,0.184,-4.424,191.595,34.624,-1.564,2.111,0.000,0.000,0.000,90.000,9.625,2.111,0.999,0.889,0.095,-0.06,0.09,1,0
37561,0.078,0.003,1.012,0.101,1.302,-0.053,0.9941,0.0051,-0.0381,0.1010,0.140,-4.403,191.599,33.118,-1.564,2.111,0.000,0.000,0.000,90.000,9.628,2.111,1.000,0.893,0.094,-0.06,0.09,1,0
37596,0.078,0.003,1.012,0.132,1.481,0.002,0.9941,0.0052,-0.0379,0.1010,0.155,-4.386,191.595,26.183,-1.564,2.111,0.000,0.000,0.000,90.000,9.675,2.111,1.000,0.894,0.113,-0.05,0.13,1,0
37987,0.064,0.003,1.010,0.011,2.616,0.011,0.9944,0.0046,-0.0312,0.1010,0.168,-3.615,191.592,0.108,-1.564,2.111,0.000,0.000,0.000,-0.384,7.203,2.111,-0.112,0.730,0.099,0.01,0.04,1,0
38006,0.062,0.003,1.011,0.149,2.727,-0.027,0.9944,0.0044,-0.0306,0.1010,0.142,-3.541,191.594,0.108,-1.564,2.111,0.000,0.000,0.000,-0.299,6.989,2.111,-0.118,0.719,0.097,0.02,0.57,1,0
38025,0.062,0.002,1.011,0.049,2.722,-0.099,0.9944,0.0043,-0.0304,0.1010,0.133,-3.519,191.593,0.108,-1.564,2.111,0.000,0.000,0.000,-0.153,6.801,2.111,-0.098,0.698,0.110,0.03,0.54,1,0
38042,0.061,0.002,1.012,0.127,2.749,-0.078,0.9944,0.0042,-0.0300,0.1010,0.135,-3.472,191.592,0.108,-1.564,2.111,0.000,0.000,0.000,-0.214,6.609,2.111,-0.099,0.695,0.112,0.02,0.41,1,0
38066,0.060,0.002,1.012,0.065,2.716,-0.135,0.9944,0.0041,-0.0294,0.1010,0.132,-3.404,191.589,0.108,-1.564,2.111,0.000,0.000,0.000,0.000,6.495,2.111,-0.086,0.696,0.119,0.01,-0.48,1,0
38086,0.059,0.003,1.012,-0.131,2.711,0.053,0.9945,0.0045,-0.0291,0.1009,0.174,-3.372,191.586,0.108,-1.564,2.111,0.000,0.000,0.000,-0.246,6.365,2.111,-0.072,0.701,0.106,-0.00,-0.46,1,0
38106,0.059,0.003,1.012,-0.059,2.673,0.140,0.9945,0.0046,-0.0288,0.1009,0.193,-3.336,191.587,0.108,-1.564,2.111,0.000,0.000,0.000,-0.479,6.259,2.111,-0.080,0.705,0.092,-0.00,-0.42,1,0
38324,0.049,0.002,1.013,-0.068,1.901,-0.138,0.9946,0.0037,-0.0240,0.1010,0.147,-2.775,191.594,0.215,-1.564,2.111,0.000,0.000,0.000,-0.104,4.306,2.111,-0.050,0.733,0.082,-0.08,-0.13,1,0
38342,0.048,0.003,1.012,0.232,1.514,-0.284,0.9946,0.0039,-0.0236,0.1010,0.174,-2.738,191.588,0.215,-1.564,2.111,0.000,0.000,0.000,0.474,4.173,2.111,-0.047,0.761,0.123,-0.08,-0.13,1,0
38356,0.048,0.003,1.012,0.278,1.565,-0.290,0.9946,0.0040,-0.0235,0.1009,0.185,-2.726,191.586,0.215,-1.564,2.111,0.000,0.000,0.000,0.190,3.988,2.111,-0.042,0.770,0.132,-0.08,-0.11,1,0
38366,0.048,0.003,1.013,-0.004,1.998,-0.194,0.9946,0.0039,-0.0231,0.1009,0.183,-2.677,191.582,0.215,-1.564,2.111,0.000,0.000,0.000,0.188,4.014,2.111,-0.050,0.738,0.135,-0.08,-0.11,1,0
38386,0.047,0.003,1.012,0.123,1.822,0.038,0.9946,0.0036,-0.0227,0.1009,0.145,-2.625,191.584,0.108,-1.564,2.111,0.000,0.000,0.000,-0.321,3.819,2.111,-0.075,0.692,0.111,-0.08,0.02,1,0
38402,0.046,0.003,1.012,0.062,1.400,0.103,0.9946,0.0038,-0.0223,0.1009,0.171,-2.589,191.584,0.108,-1.564,2.111,0.000,0.000,0.000,-0.313,3.670,2.111,-0.091,0.727,0.094,-0.08,0.02,1,0
38417,0.046,0.003,1.012,-0.099,1.464,0.249,0.9946,0.0036,-0.0223,0.1009,0.154,-2.579,191.587,0.108,-1.564,2.111,0.000,0.000,0.000,-0.240,3.596,2.111,-0.081,0.735,0.078,-0.08,0.02,1,0
38432,0.045,0.002,1.012,-0.088,1.375,0.218,0.9946,0.0032,-0.0220,0.1010,0.108,-2.559,191.593,0.108,-1.564,2.111,0.000,0.000,0.000,-0.047,3.503,2.111,-0.073,0.739,0.071,-0.08,0.01,1,0
38446,0.045,0.002,1.012,0.075,1.100,-0.102,0.9946,0.0033,-0.0218,0.1010,0.129,-2.523,191.592,0.108,-1.564,2.111,0.000,0.000,0.000,0.110,3.379,2.111,-0.067,0.760,0.093,-0.08,0.01,1,0
38462,0.044,0.004,1.012,0.028,1.252,-0.052,0.9946,0.0040,-0.0215,0.1010,0.203,-2.497,191.587,0.108,-1.564,2.111,0.000,0.000,0.000,-0.550,3.275,2.111,-0.077,0.757,0.110,-0.08,-0.07,1,0
38482,0.044,0.002,1.012,0.250,1.176,-0.072,0.9946,0.0033,-0.0215,0.1010,0.126,-2.493,191.590,0.215,-1.564,2.111,0.000,0.000,0.000,-0.320,3.275,2.111,-0.101,0.748,0.110,-0.08,-0.07,1,0
38494,0.043,0.003,1.011,0.208,0.930,-0.117,0.9947,0.0035,-0.0212,0.1009,0.156,-2.461,191.586,0.108,-1.564,2.111,0.000,0.000,0.000,-0.204,3.214,2.111,-0.088,0.764,0.124,-0.08,-0.07,1,0
38516,0.043,0.002,1.011,0.176,0.857,0.225,0.9947,0.0028,-0.0210,0.1010,0.073,-2.422,191.592,0.108,-1.564,2.111,0.000,0.000,0.000,-0.092,3.126,2.111,-0.105,0.784,0.090,-0.08,-0.08,1,0
38536,0.042,0.001,1.011,0.131,0.815,-0.116,0.9947,0.0026,-0.0208,0.1010,0.053,-2.398,191.594,0.108,-1.564,2.111,0.000,0.000,0.000,0.181,2.916,2.111,-0.086,0.780,0.102,-0.08,-0.08,1,0
38547,0.042,0.002,1.012,-0.095,0.756,-0.165,0.9947,0.0031,-0.0205,0.1010,0.121,-2.377,191.589,0.108,-1.564,2.111,0.000,0.000,0.000,0.050,2.876,2.111,-0.061,0.773,0.116,-0.08,-0.08,1,0
38566,0.042,0.003,1.012,0.099,0.570,0.047,0.9947,0.0033,-0.0203,0.1009,0.147,-2.353,191.587,0.108,-1.564,2.111,0.000,0.000,0.000,-0.220,2.771,2.111,-0.063,0.773,0.112,-0.09,-0.10,1,0
38584,0.041,0.003,1.012,-0.088,0.335,0.167,0.9947,0.0037,-0.0201,0.1010,0.174,-2.320,191.588,0.108,-1.564,2.111,0.000,0.000,0.000,-0.492,2.688,2.111,-0.080,0.796,0.091,-0.10,-0.35,1,0
38601,0.041,0.003,1.012,0.128,0.325,0.155,0.9947,0.0034,-0.0200,0.1010,0.155,-2.319,191.592,0.108,-1.564,2.111,0.000,0.000,0.000,-0.176,2.697,2.111,-0.093,0.802,0.083,-0.10,-0.33,1,0
38618,0.041,0.002,1.012,0.269,0.241,-0.109,0.9947,0.0028,-0.0197,0.1010,0.095,-2.282,191.594,0.108,-1.564,2.111,0.000,0.000,0.000,0.000,2.583,2.111,-0.092,0.804,0.102,-0.11,-0.32,1,0
39046,0.046,0.002,1.011,0.139,-2.361,-0.003,0.9946,0.0034,-0.0225,0.1012,0.130,-2.600,191.620,0.000,-1.564,2.111,0.000,0.000,0.000,-0.461,3.544,2.111,-0.111,0.984,0.113,-0.20,-0.36,1,0
39064,0.046,0.002,1.012,0.131,-2.385,0.087,0.9946,0.0035,-0.0228,0.1012,0.134,-2.636,191.621,0.000,-1.564,2.111,0.000,0.000,0.000,-0.746,3.714,2.111,-0.120,0.986,0.107,-0.20,-0.34,1,0
39076,0.047,0.002,1.012,0.104,-2.440,0.063,0.9946,0.0035,-0.0229,0.1012,0.135,-2.654,191.621,0.000,-1.564,2.111,0.000,0.000,0.000,-0.633,3.762,2.111,-0.123,0.987,0.103,-0.20,-0.33,1,0
39084,0.047,0.002,1.012,0.166,-2.491,0.028,0.9946,0.0035,-0.0230,0.1012,0.115,-2.667,191.623,0.000,-1.564,2.111,0.000,0.000,0.000,-0.770,3.829,2.111,-0.122,0.988,0.104,-0.21,-0.33,1,0
39104,0.048,0.002,1.012,0.107,-2.480,-0.024,0.9946,0.0035,-0.0235,0.1012,0.121,-2.722,191.621,-0.753,-1.564,2.111,0.000,0.000,0.000,-0.900,3.919,2.111,-0.128,0.991,0.113,-0.22,-0.42,1,0
39134,0.049,0.002,1.012,0.086,-2.668,0.031,0.9946,0.0037,-0.0240,0.1012,0.140,-2.775,191.621,-5.591,-1.564,2.111,0.000,0.000,0.000,-24.847,4.134,2.111,-0.320,0.993,0.106,-0.22,-0.26,1,0
39383,0.060,0.003,1.011,0.109,-2.563,0.017,0.9944,0.0043,-0.0292,0.1013,0.153,-3.376,191.627,-43.495,-1.564,2.111,0.000,0.000,0.000,-90.000,5.976,2.111,-0.944,0.996,0.113,-0.19,-0.48,1,0
39398,0.060,0.003,1.012,-0.052,-2.494,-0.006,0.9944,0.0043,-0.0295,0.1013,0.151,-3.419,191.627,-43.495,-1.564,2.111,0.000,0.000,0.000,-90.000,6.023,2.111,-0.953,0.996,0.110,-0.20,-0.44,1,0
39416,0.061,0.003,1.012,-0.036,-2.595,0.068,0.9944,0.0046,-0.0300,0.1013,0.172,-3.471,191.626,-43.495,-1.564,2.111,0.000,0.000,0.000,-90.000,6.287,2.111,-0.961,0.997,0.103,-0.20,-0.27,1,0
39434,0.062,0.004,1.012,0.011,-2.574,0.056,0.9944,0.0048,-0.0304,0.1013,0.199,-3.518,191.625,-43.495,-1.564,2.111,0.000,0.000,0.000,-90.000,6.386,2.111,-0.967,0.997,0.101,-0.21,-0.26,1,0
39464,0.063,0.004,1.012,0.119,-2.460,0.178,0.9944,0.0050,-0.0308,0.1013,0.216,-3.566,191.627,-43.495,-1.564,2.111,0.000,0.000,0.000,-90.000,6.679,2.111,-0.975,0.998,0.088,-0.21,-0.24,1,0
39476,0.064,0.003,1.012,0.205,-2.473,0.057,0.9944,0.0048,-0.0311,0.1013,0.191,-3.604,191.631,-43.495,-1.564,2.111,0.000,0.000,0.000,-90.000,6.789,2.111,-0.979,0.998,0.090,-0.21,-0.13,1,0
39492,0.064,0.003,1.012,0.143,-2.454,0.105,0.9943,0.0048,-0.0314,0.1013,0.188,-3.641,191.632,-43.495,-1.564,2.111,0.000,0.000,0.000,-90.000,6.845,2.111,-0.982,0.999,0.093,-0.19,0.77,1,0
39512,0.065,0.002,1.012,0.152,-2.392,0.029,0.9943,0.0044,-0.0319,0.1014,0.128,-3.683,191.638,-43.495,-1.564,2.111,0.000,0.000,0.000,-90.000,7.000,2.111,-0.985,0.999,0.099,-0.18,0.73,1,0
39530,0.066,0.002,1.012,0.044,-2.356,-0.074,0.9943,0.0045,-0.0324,0.1014,0.132,-3.744,191.637,-43.495,-1.564,2.111,0.000,0.000,0.000,-90.000,7.162,2.111,-0.987,0.999,0.109,-0.17,0.73,1,0
39554,0.067,0.003,1.012,0.124,-2.218,-0.048,0.9943,0.0048,-0.0328,0.1013,0.168,-3.794,191.633,-43.495,-1.564,2.111,0.000,0.000,0.000,-90.000,7.454,2.111,-0.990,0.999,0.117,-0.13,1.51,1,0
39572,0.068,0.003,1.011,0.052,-2.124,0.028,0.9943,0.0050,-0.0332,0.1013,0.186,-3.849,191.631,-43.495,-1.564,2.111,0.000,0.000,0.000,-90.000,7.526,2.111,-0.992,0.999,0.109,-0.10,1.44,1,0
39586,0.069,0.003,1.012,0.100,-2.074,0.116,0.9943,0.0049,-0.0338,0.1013,0.167,-3.909,191.634,-43.495,-1.564,2.111,0.000,0.000,0.000,-90.000,7.673,2.111,-0.993,0.999,0.103,-0.08,1.44,1,0
39600,0.069,0.003,1.012,0.177,-1.956,0.127,0.9943,0.0049,-0.0338,0.1014,0.171,-3.915,191.636,-43.495,-1.564,2.111,0.000,0.000,0.000,-90.000,7.800,2.111,-0.994,1.000,0.093,-0.07,1.34,1,0
39622,0.070,0.003,1.012,0.130,-1.915,0.118,0.9942,0.0048,-0.0342,0.1014,0.149,-3.953,191.639,-43.495,-1.564,2.111,0.000,0.000,0.000,-90.000,7.906,2.111,-0.995,1.000,0.092,-0.05,1.01,1,0
39635,0.070,0.002,1.012,0.138,-1.861,0.033,0.9942,0.0045,-0.0345,0.1014,0.115,-3.990,191.643,-43.495,-1.564,2.111,0.000,0.000,0.000,-90.000,7.996,2.111,-0.996,1.000,0.096,-0.03,0.96,1,0
40072,0.077,0.002,1.012,0.182,1.103,0.016,0.9941,0.0050,-0.0374,0.1015,0.134,-4.327,191.656,-33.387,-1.564,2.111,0.000,0.000,0.000,-90.000,9.430,2.111,-1.000,0.926,0.113,0.02,-0.21,1,0
40092,0.077,0.003,1.011,0.026,1.144,0.087,0.9941,0.0053,-0.0375,0.1015,0.163,-4.336,191.655,-19.462,-1.564,2.111,0.000,0.000,0.000,-90.000,9.527,2.111,-1.000,0.907,0.103,0.01,-0.16,1,0
40113,0.077,0.003,1.012,-0.023,1.311,0.106,0.9941,0.0052,-0.0374,0.1015,0.155,-4.324,191.659,-12.312,-1.564,2.111,0.000,0.000,0.000,-69.549,9.611,2.111,-1.000,0.929,0.094,0.01,-0.13,1,0
40134,0.077,0.002,1.011,0.008,1.309,0.026,0.9941,0.0048,-0.0375,0.1016,0.111,-4.327,191.663,-5.430,-1.564,2.111,0.000,0.000,0.000,-50.504,9.640,2.111,-0.736,0.930,0.096,0.01,-0.13,1,0
40154,0.076,0.003,1.012,0.180,1.475,-0.175,0.9941,0.0051,-0.0372,0.1015,0.144,-4.303,191.659,0.000,-1.564,2.111,0.000,0.000,0.000,-0.745,9.525,2.111,-0.335,0.935,0.121,0.01,0.01,1,0
40364,0.070,0.002,1.011,0.105,2.135,-0.084,0.9942,0.0043,-0.0344,0.1016,0.088,-3.970,191.663,0.215,-1.564,2.111,0.000,0.000,0.000,0.810,8.398,2.111,0.037,0.848,0.093,0.08,0.03,1,0
40383,0.070,0.003,1.012,0.062,2.308,0.014,0.9942,0.0048,-0.0341,0.1015,0.153,-3.940,191.658,0.215,-1.564,2.111,0.000,0.000,0.000,0.346,8.325,2.111,0.010,0.840,0.103,0.07,-0.07,1,0
40396,0.069,0.003,1.012,-0.132,2.534,0.042,0.9942,0.0048,-0.0338,0.1016,0.148,-3.912,191.659,0.215,-1.564,2.111,0.000,0.000,0.000,0.362,8.329,2.111,-0.013,0.824,0.098,0.06,-0.90,1,0
40407,0.069,0.003,1.012,0.026,2.646,0.024,0.9942,0.0049,-0.0337,0.1016,0.167,-3.905,191.658,0.215,-1.564,2.111,0.000,0.000,0.000,0.341,8.160,2.111,-0.033,0.806,0.098,0.05,-0.90,1,0
40427,0.069,0.003,1.012,0.056,2.528,0.053,0.9943,0.0047,-0.0335,0.1016,0.149,-3.870,191.660,0.215,-1.564,2.111,0.000,0.000,0.000,0.383,8.053,2.111,-0.061,0.792,0.098,0.03,-0.85,1,0
40443,0.068,0.002,1.012,0.374,2.531,0.011,0.9943,0.0043,-0.0331,0.1016,0.106,-3.828,191.664,0.215,-1.564,2.111,0.000,0.000,0.000,0.605,7.934,2.111,-0.079,0.803,0.097,0.04,-0.66,1,0
40463,0.067,0.002,1.012,0.233,2.640,-0.203,0.9943,0.0042,-0.0327,0.1016,0.097,-3.779,191.663,0.215,-1.564,2.111,0.000,0.000,0.000,0.667,7.778,2.111,-0.068,0.797,0.118,0.06,0.74,1,0
40476,0.067,0.002,1.012,-0.090,2.693,-0.170,0.9943,0.0043,-0.0326,0.1016,0.113,-3.768,191.659,0.215,-1.564,2.111,0.000,0.000,0.000,0.495,7.650,2.111,-0.066,0.791,0.128,0.07,0.70,1,0
40498,0.066,0.003,1.012,-0.008,2.782,-0.181,0.9943,0.0045,-0.0319,0.1015,0.139,-3.691,191.654,0.215,-1.564,2.111,0.000,0.000,0.000,0.570,7.534,2.111,-0.080,0.783,0.131,0.08,0.67,1,0
40516,0.065,0.003,1.012,-0.037,2.787,-0.056,0.9943,0.0050,-0.0316,0.1015,0.201,-3.663,191.649,0.215,-1.564,2.111,0.000,0.000,0.000,0.198,7.375,2.111,-0.088,0.778,0.123,0.09,0.54,1,0
40538,0.064,0.003,1.012,-0.031,2.692,0.131,0.9943,0.0048,-0.0312,0.1015,0.181,-3.612,191.651,0.215,-1.564,2.111,0.000,0.000,0.000,0.256,7.172,2.111,-0.114,0.781,0.095,0.08,-0.30,1,0
40556,0.063,0.003,1.012,-0.126,2.740,0.187,0.9943,0.0044,-0.0309,0.1015,0.136,-3.578,191.657,0.215,-1.564,2.111,0.000,0.000,0.000,0.330,7.043,2.111,-0.112,0.783,0.082,0.07,-0.28,1,0
40582,0.062,0.002,1.012,0.104,2.585,0.131,0.9943,0.0045,-0.0304,0.1016,0.154,-3.521,191.659,0.215,-1.564,2.111,0.000,0.000,0.000,0.473,6.886,2.111,-0.113,0.794,0.080,0.07,-0.22,1,0
40595,0.062,0.003,1.012,0.036,2.663,0.004,0.9944,0.0045,-0.0300,0.1016,0.162,-3.474,191.660,0.215,-1.564,2.111,0.000,0.000,0.000,0.390,6.658,2.111,-0.119,0.794,0.090,0.08,0.28,1,0
40615,0.060,0.002,1.012,0.116,2.650,-0.229,0.9944,0.0040,-0.0296,0.1016,0.108,-3.426,191.661,0.215,-1.564,2.111,0.000,0.000,0.000,0.591,6.476,2.111,-0.115,0.779,0.116,0.08,0.26,1,0
40634,0.060,0.002,1.012,0.115,2.526,-0.259,0.9944,0.0042,-0.0290,0.1015,0.146,-3.360,191.656,0.215,-1.564,2.111,0.000,0.000,0.000,0.433,6.362,2.111,-0.111,0.782,0.136,0.09,0.20,1,0
40647,0.059,0.003,1.012,0.074,2.474,-0.003,0.9944,0.0043,-0.0290,0.1015,0.154,-3.352,191.654,0.215,-1.564,2.111,0.000,0.000,0.000,0.275,6.225,2.111,-0.119,0.791,0.123,0.08,0.20,1,0
40665,0.058,0.002,1.012,-0.016,2.716,0.109,0.9944,0.0040,-0.0283,0.1015,0.128,-3.269,191.657,0.215,-1.564,2.111,0.000,0.000,0.000,0.546,6.095,2.111,-0.112,0.773,0.098,0.08,-0.21,1,0
41123,0.042,0.002,1.012,0.066,0.451,0.085,0.9946,0.0033,-0.0208,0.1016,0.133,-2.408,191.665,-39.409,-1.173,2.111,0.000,0.000,0.000,-90.000,4.026,2.111,-0.951,0.889,0.085,0.11,-0.00,1,0
41144,0.042,0.003,1.011,0.091,0.135,-0.280,0.9946,0.0036,-0.0206,0.1016,0.173,-2.393,191.657,-39.516,-1.173,2.111,0.000,0.000,0.000,-90.000,4.072,2.111,-0.964,0.918,0.136,0.11,-0.00,1,0
41160,0.042,0.003,1.011,0.044,0.104,-0.105,0.9946,0.0037,-0.0206,0.1016,0.179,-2.390,191.656,-39.516,-1.173,2.111,0.000,0.000,0.000,-90.000,4.005,2.111,-0.967,0.924,0.133,0.11,0.03,1,0
41176,0.042,0.003,1.011,0.145,0.199,-0.024,0.9946,0.0037,-0.0203,0.1015,0.186,-2.362,191.655,-39.409,-1.173,2.111,0.000,0.000,0.000,-90.000,4.053,2.111,-0.972,0.926,0.116,0.12,0.36,1,0
41402,0.043,0.003,1.012,-0.080,-1.577,0.148,0.9946,0.0039,-0.0209,0.1017,0.203,-2.423,191.669,-42.903,-1.173,2.111,0.000,0.000,0.000,-90.000,4.137,2.111,-0.997,0.987,0.084,0.24,0.71,1,0
41426,0.043,0.003,1.012,0.128,-1.756,0.006,0.9946,0.0039,-0.0212,0.1017,0.201,-2.461,191.671,-43.065,-1.222,2.111,0.000,0.000,0.000,-90.000,4.014,2.111,-0.998,0.990,0.101,0.23,0.54,1,0
41450,0.043,0.002,1.012,0.243,-1.925,-0.068,0.9946,0.0034,-0.0211,0.1017,0.140,-2.445,191.673,-42.903,-1.222,2.111,0.000,0.000,0.000,-90.000,4.065,2.111,-0.998,0.992,0.115,0.21,-0.58,1,0
41481,0.044,0.004,1.012,0.097,-2.095,0.031,0.9946,0.0041,-0.0218,0.1017,0.213,-2.527,191.667,-42.796,-1.320,2.111,0.000,0.000,0.000,-90.000,3.932,2.111,-0.999,0.984,0.121,0.20,-0.53,1,0
41500,0.045,0.003,1.011,0.094,-2.120,0.142,0.9946,0.0035,-0.0217,0.1017,0.151,-2.521,191.672,-42.634,-1.320,2.111,0.000,0.000,0.000,-90.000,4.045,2.111,-0.999,0.987,0.097,0.19,-0.28,1,0
41515,0.045,0.003,1.012,0.070,-2.199,-0.097,0.9946,0.0039,-0.0219,0.1017,0.193,-2.538,191.670,-42.204,-1.369,2.111,0.000,0.000,0.000,-90.000,3.886,2.111,-0.999,0.989,0.104,0.19,-0.27,1,0
41532,0.045,0.004,1.012,-0.005,-2.229,-0.060,0.9946,0.0040,-0.0221,0.1017,0.196,-2.562,191.670,-42.097,-1.369,2.111,0.000,0.000,0.000,-90.000,3.957,2.111,-0.999,0.990,0.112,0.19,-0.27,1,0
41554,0.046,0.003,1.012,0.171,-2.345,0.011,0.9945,0.0038,-0.0226,0.1017,0.172,-2.622,191.671,-41.505,-1.369,2.111,0.000,0.000,0.000,-90.000,4.141,2.111,-0.999,0.993,0.105,0.18,-0.21,1,0
41576,0.047,0.003,1.012,0.100,-2.448,0.164,0.9945,0.0037,-0.0229,0.1017,0.158,-2.650,191.673,-41.398,-1.369,2.111,0.000,0.000,0.000,-90.000,4.294,2.111,-1.000,0.994,0.098,0.18,0.05,1,0
41595,0.048,0.002,1.012,0.225,-2.537,0.144,0.9945,0.0035,-0.0234,0.1017,0.128,-2.707,191.678,-41.344,-1.369,2.111,0.000,0.000,0.000,-90.000,4.389,2.111,-1.000,0.995,0.086,0.18,0.05,1,0
41623,0.049,0.002,1.011,0.176,-2.688,-0.091,0.9945,0.0037,-0.0239,0.1017,0.145,-2.763,191.676,-41.237,-1.369,2.111,0.000,0.000,0.000,-90.000,4.549,2.111,-1.000,0.996,0.113,0.18,0.02,1,0
41635,0.049,0.003,1.011,0.122,-2.663,0.007,0.9945,0.0040,-0.0241,0.1017,0.175,-2.790,191.674,-41.237,-1.369,2.111,0.000,0.000,0.000,-90.000,4.685,2.111,-1.000,0.997,0.115,0.18,-0.21,1,0
41656,0.050,0.003,1.011,-0.063,-2.603,0.049,0.9945,0.0040,-0.0244,0.1017,0.176,-2.826,191.675,-41.075,-1.369,2.111,0.000,0.000,0.000,-90.000,4.801,2.111,-1.000,0.997,0.106,0.18,-0.20,1,0
41672,0.051,0.002,1.011,0.051,-2.671,0.064,0.9945,0.0036,-0.0248,0.1017,0.126,-2.874,191.679,-40.968,-1.320,2.111,0.000,0.000,0.000,-90.000,5.173,2.111,-1.000,0.998,0.098,0.17,-0.16,1,0
41695,0.052,0.002,1.011,0.094,-2.764,0.017,0.9945,0.0035,-0.0254,0.1018,0.104,-2.941,191.682,-40.968,-1.369,2.111,0.000,0.000,0.000,-90.000,5.145,2.111,-1.000,0.998,0.098,0.17,0.05,1,0
42143,0.071,0.003,1.011,0.165,-1.814,-0.004,0.9942,0.0050,-0.0350,0.1019,0.161,-4.045,191.693,-41.237,-1.369,2.111,0.000,0.000,0.000,-90.000,8.911,2.111,-1.000,0.998,0.115,0.07,-0.15,1,0
42167,0.072,0.003,1.011,0.087,-1.699,0.019,0.9942,0.0051,-0.0354,0.1019,0.166,-4.095,191.695,-41.344,-1.369,2.111,0.000,0.000,0.000,-90.000,9.057,2.111,-1.000,0.998,0.107,0.07,-0.25,1,0
42185,0.073,0.003,1.011,0.084,-1.588,0.043,0.9941,0.0054,-0.0357,0.1019,0.194,-4.129,191.693,-41.344,-1.369,2.111,0.000,0.000,0.000,-90.000,9.165,2.111,-1.000,0.999,0.109,0.06,-0.24,1,0
42201,0.074,0.003,1.011,0.104,-1.454,0.036,0.9941,0.0053,-0.0360,0.1019,0.187,-4.169,191.694,-41.237,-1.369,2.111,0.000,0.000,0.000,-90.000,9.328,2.111,-1.000,0.999,0.108,0.06,-0.24,1,0
42394,0.078,0.003,1.011,0.087,0.067,0.005,0.9940,0.0053,-0.0382,0.1020,0.154,-4.416,191.706,-41.344,-1.466,2.111,0.000,0.000,0.000,-90.000,9.864,2.111,-1.000,0.983,0.098,0.01,-0.39,1,0
42411,0.078,0.003,1.011,0.056,0.169,0.004,0.9940,0.0053,-0.0384,0.1019,0.159,-4.443,191.705,-41.344,-1.466,2.111,0.000,0.000,0.000,-90.000,9.855,2.111,-1.000,0.985,0.105,0.01,-0.39,1,0
42425,0.078,0.003,1.011,0.055,0.370,0.006,0.9940,0.0055,-0.0384,0.1019,0.175,-4.438,191.705,-41.344,-1.466,2.111,0.000,0.000,0.000,-90.000,9.847,2.111,-1.000,0.985,0.106,-0.00,-0.58,1,0
42442,0.078,0.003,1.011,0.059,0.589,-0.090,0.9940,0.0054,-0.0381,0.1019,0.171,-4.404,191.704,-41.344,-1.466,2.111,0.000,0.000,0.000,-90.000,9.814,2.111,-1.000,0.973,0.115,-0.01,-0.55,1,0
42466,0.078,0.003,1.011,0.116,0.744,0.006,0.9940,0.0055,-0.0381,0.1019,0.181,-4.414,191.702,-41.344,-1.466,2.111,0.000,0.000,0.000,-90.000,9.926,2.111,-1.000,0.972,0.117,-0.02,-0.52,1,0
42484,0.078,0.003,1.011,0.083,0.867,0.084,0.9940,0.0055,-0.0381,0.1019,0.187,-4.405,191.704,-41.344,-1.564,2.111,0.000,0.000,0.000,-90.000,9.870,2.111,-1.000,0.973,0.100,-0.03,-0.48,1,0
42502,0.078,0.003,1.011,0.014,0.917,0.010,0.9940,0.0054,-0.0381,0.1020,0.168,-4.408,191.706,-41.237,-1.466,2.111,0.000,0.000,0.000,-90.000,9.506,2.111,-1.000,0.959,0.102,-0.04,-0.45,1,0
42522,0.078,0.003,1.011,0.011,1.029,0.038,0.9940,0.0054,-0.0379,0.1020,0.173,-4.384,191.706,-41.237,-1.466,2.111,0.000,0.000,0.000,-90.000,9.751,2.111,-1.000,0.965,0.104,-0.05,-0.41,1,0
42535,0.078,0.003,1.011,0.035,1.155,0.033,0.9940,0.0053,-0.0381,0.1020,0.159,-4.406,191.707,-41.075,-1.466,2.111,0.000,0.000,0.000,-90.000,9.788,2.111,-1.000,0.968,0.103,-0.05,-0.17,1,0
42553,0.077,0.003,1.011,0.100,1.325,-0.097,0.9941,0.0054,-0.0378,0.1020,0.177,-4.369,191.706,-41.075,-1.564,2.111,0.000,0.000,0.000,-90.000,9.400,2.111,-1.000,0.956,0.109,-0.05,-0.17,1,0
42576,0.077,0.003,1.011,0.029,1.426,0.034,0.9941,0.0056,-0.0377,0.1019,0.201,-4.363,191.703,-41.075,-1.466,2.111,0.000,0.000,0.000,-90.000,9.632,2.111,-1.000,0.934,0.112,-0.05,-0.16,1,0
42594,0.077,0.003,1.011,0.075,1.480,0.113,0.9941,0.0051,-0.0377,0.1020,0.143,-4.354,191.710,-41.075,-1.466,2.111,0.000,0.000,0.000,-90.000,9.624,2.111,-1.000,0.946,0.093,-0.05,-0.10,1,0
42616,0.076,0.003,1.011,0.018,1.596,-0.034,0.9941,0.0051,-0.0373,0.1020,0.151,-4.312,191.710,-40.968,-1.564,2.111,0.000,0.000,0.000,-90.000,9.231,2.111,-1.000,0.927,0.101,-0.05,0.31,1,0
42634,0.076,0.002,1.011,0.049,1.689,-0.078,0.9941,0.0052,-0.0373,0.1020,0.156,-4.319,191.709,-40.914,-1.564,2.111,0.000,0.000,0.000,-90.000,9.236,2.111,-1.000,0.915,0.110,-0.04,0.29,1,0
42651,0.076,0.003,1.011,0.054,1.740,-0.126,0.9941,0.0052,-0.0371,0.1020,0.165,-4.289,191.707,-40.914,-1.564,2.111,0.000,0.000,0.000,-90.000,9.105,2.111,-1.000,0.911,0.118,-0.04,0.29,1,0
42666,0.076,0.003,1.012,0.051,1.769,-0.058,0.9941,0.0054,-0.0368,0.1019,0.182,-4.264,191.704,-40.806,-1.564,2.111,0.000,0.000,0.000,-90.000,9.064,2.111,-1.000,0.918,0.120,-0.05,0.22,1,0
42682,0.075,0.003,1.012,0.124,1.877,-0.099,0.9941,0.0051,-0.0368,0.1019,0.147,-4.254,191.705,-40.699,-1.466,2.111,0.000,0.000,0.000,-90.000,8.979,2.111,-1.000,0.912,0.118,-0.05,-0.34,1,0
42700,0.075,0.003,1.011,0.041,2.059,-0.033,0.9941,0.0052,-0.0365,0.1019,0.172,-4.223,191.702,-40.699,-1.564,2.111,0.000,0.000,0.000,-90.000,8.945,2.111,-1.000,0.905,0.116,-0.06,-0.32,1,0
42724,0.074,0.003,1.011,0.104,2.088,0.028,0.9941,0.0051,-0.0362,0.1019,0.161,-4.184,191.704,-40.699,-1.564,2.111,0.000,0.000,0.000,-90.000,8.874,2.111,-1.000,0.908,0.102,-0.07,-0.35,1,0
43140,0.058,0.002,1.012,-0.112,2.366,-0.022,0.9944,0.0041,-0.0281,0.1019,0.141,-3.251,191.699,-40.914,-1.466,2.111,0.000,0.000,0.000,-90.000,5.941,2.111,-1.000,0.793,0.107,-0.24,-0.50,1,0
43152,0.057,0.002,1.013,0.076,2.245,-0.044,0.9944,0.0037,-0.0278,0.1019,0.092,-3.212,191.701,-40.914,-1.466,2.111,0.000,0.000,0.000,-90.000,5.896,2.111,-1.000,0.808,0.113,-0.25,-0.47,1,0
43163,0.056,0.002,1.013,0.098,2.258,-0.173,0.9944,0.0035,-0.0275,0.1019,0.075,-3.176,191.701,-40.914,-1.466,2.111,0.000,0.000,0.000,-90.000,5.761,2.111,-1.000,0.815,0.120,-0.25,-0.47,1,0
43180,0.056,0.002,1.012,0.053,2.350,-0.207,0.9944,0.0039,-0.0271,0.1019,0.125,-3.133,191.695,-40.914,-1.466,2.111,0.000,0.000,0.000,-90.000,5.656,2.111,-1.000,0.810,0.134,-0.26,-0.40,1,0
43195,0.055,0.002,1.013,0.200,2.389,-0.130,0.9944,0.0040,-0.0270,0.1018,0.146,-3.120,191.691,-40.914,-1.466,2.111,0.000,0.000,0.000,-90.000,5.503,2.111,-1.000,0.799,0.132,-0.25,0.08,1,0
43216,0.054,0.004,1.013,0.056,2.224,0.124,0.9944,0.0044,-0.0263,0.1018,0.197,-3.047,191.688,-40.806,-1.466,2.111,0.000,0.000,0.000,-90.000,5.392,2.111,-1.000,0.803,0.113,-0.25,0.08,1,0
43240,0.053,0.002,1.012,0.144,2.120,0.159,0.9944,0.0038,-0.0258,0.1019,0.132,-2.991,191.697,-40.806,-1.466,2.111,0.000,0.000,0.000,-90.000,5.183,2.111,-1.000,0.813,0.080,-0.25,0.08,1,0
43440,0.047,0.004,1.011,-0.086,1.037,-0.032,0.9945,0.0041,-0.0230,0.1019,0.201,-2.667,191.696,-40.645,-1.466,2.111,0.000,0.000,0.000,-90.000,4.043,2.111,-1.000,0.865,0.110,-0.25,-0.02,1,0
43457,0.046,0.003,1.011,0.223,0.970,0.103,0.9945,0.0037,-0.0228,0.1019,0.160,-2.638,191.699,-40.645,-1.466,2.111,0.000,0.000,0.000,-90.000,3.850,2.111,-1.000,0.872,0.099,-0.24,0.66,1,0
43476,0.046,0.002,1.012,0.213,1.130,-0.235,0.9945,0.0034,-0.0224,0.1019,0.129,-2.596,191.699,-40.538,-1.466,2.111,0.000,0.000,0.000,-90.000,3.792,2.111,-1.000,0.860,0.120,-0.22,0.63,1,0
43494,0.046,0.002,1.012,-0.014,1.032,-0.024,0.9945,0.0034,-0.0221,0.1019,0.124,-2.561,191.697,-40.538,-1.466,2.111,0.000,0.000,0.000,-90.000,3.732,2.111,-1.000,0.853,0.123,-0.22,0.63,1,0
43504,0.045,0.002,1.011,0.223,0.747,0.090,0.9945,0.0030,-0.0219,0.1019,0.085,-2.537,191.700,-40.538,-1.564,2.111,0.000,0.000,0.000,-90.000,3.300,2.111,-1.000,0.861,0.102,-0.23,0.47,1,0
43520,0.045,0.002,1.012,-0.081,0.603,0.008,0.9945,0.0033,-0.0217,0.1019,0.127,-2.515,191.699,-40.538,-1.466,2.111,0.000,0.000,0.000,-90.000,3.566,2.111,-1.000,0.870,0.102,-0.24,-0.70,1,0
43546,0.044,0.003,1.011,0.147,0.386,0.145,0.9945,0.0037,-0.0215,0.1019,0.170,-2.495,191.699,-40.538,-1.466,2.111,0.000,0.000,0.000,-90.000,3.473,2.111,-1.000,0.868,0.091,-0.26,-0.67,1,0
43566,0.044,0.003,1.012,-0.012,0.186,-0.010,0.9945,0.0037,-0.0215,0.1019,0.169,-2.495,191.701,-40.538,-1.466,2.111,0.000,0.000,0.000,-90.000,3.463,2.111,-1.000,0.893,0.098,-0.25,-0.55,1,0
43584,0.044,0.003,1.011,0.169,0.187,0.034,0.9946,0.0037,-0.0213,0.1019,0.168,-2.466,191.701,-40.538,-1.466,2.111,0.000,0.000,0.000,-90.000,3.417,2.111,-1.000,0.906,0.103,-0.25,0.26,1,0
43603,0.044,0.002,1.011,0.129,0.110,0.050,0.9946,0.0031,-0.0212,0.1020,0.111,-2.452,191.705,-40.538,-1.466,2.111,0.000,0.000,0.000,-90.000,3.432,2.111,-1.000,0.915,0.097,-0.24,0.25,1,0
43625,0.043,0.002,1.011,0.113,0.010,0.024,0.9946,0.0033,-0.0213,0.1020,0.130,-2.464,191.705,-40.538,-1.466,2.111,0.000,0.000,0.000,-90.000,3.286,2.111,-1.000,0.924,0.105,-0.24,0.19,1,0
43642,0.043,0.003,1.011,0.058,-0.187,0.076,0.9946,0.0036,-0.0211,0.1020,0.158,-2.445,191.705,-40.538,-1.466,2.111,0.000,0.000,0.000,-90.000,3.262,2.111,-1.000,0.934,0.099,-0.25,-0.21,1,0
43673,0.043,0.003,1.011,0.150,-0.374,-0.092,0.9946,0.0037,-0.0209,0.1020,0.176,-2.422,191.705,-40.538,-1.466,2.111,0.000,0.000,0.000,-90.000,3.208,2.111,-1.000,0.952,0.111,-0.25,-0.19,1,0
43692,0.043,0.004,1.011,-0.002,-0.466,0.003,0.9946,0.0039,-0.0210,0.1020,0.199,-2.440,191.703,-40.538,-1.466,2.111,0.000,0.000,0.000,-90.000,3.253,2.111,-1.000,0.960,0.117,-0.25,-0.11,1,0
43706,0.043,0.003,1.011,0.012,-0.595,0.088,0.9946,0.0038,-0.0210,0.1020,0.185,-2.442,191.704,-40.538,-1.466,2.111,0.000,0.000,0.000,-90.000,3.239,2.111,-1.000,0.964,0.107,-0.25,-0.11,1,0
43732,0.043,0.002,1.011,0.074,-0.657,0.065,0.9946,0.0034,-0.0210,0.1020,0.142,-2.435,191.708,-40.538,-1.466,2.111,0.000,0.000,0.000,-90.000,3.191,2.111,-1.000,0.971,0.100,-0.24,0.49,1,0
43746,0.043,0.002,1.012,0.080,-0.861,0.084,0.9945,0.0035,-0.0211,0.1020,0.147,-2.449,191.710,-40.538,-1.466,2.111,0.000,0.000,0.000,-90.000,3.249,2.111,-1.000,0.976,0.094,-0.23,0.47,1,0
44182,0.054,0.002,1.011,0.107,-2.489,0.128,0.9944,0.0038,-0.0266,0.1022,0.126,-3.073,191.728,-37.204,-1.564,2.111,0.000,0.000,0.000,-90.000,4.907,2.111,-1.000,1.000,0.087,-0.11,0.11,1,0
44199,0.055,0.002,1.011,0.115,-2.556,0.077,0.9944,0.0041,-0.0268,0.1022,0.149,-3.097,191.727,-35.484,-1.564,2.111,0.000,0.000,0.000,-90.000,5.082,2.111,-1.000,1.000,0.088,-0.11,0.11,1,0
44206,0.055,0.002,1.011,0.151,-2.583,-0.019,0.9944,0.0039,-0.0272,0.1022,0.127,-3.148,191.729,-33.817,-1.564,2.111,0.000,0.000,0.000,-90.000,5.234,2.111,-1.000,1.000,0.099,-0.11,0.11,1,0
44218,0.056,0.003,1.011,0.117,-2.640,0.010,0.9944,0.0042,-0.0274,0.1022,0.163,-3.179,191.727,-31.398,-1.564,2.111,0.000,0.000,0.000,-90.000,5.408,2.111,-1.000,1.000,0.104,-0.11,0.09,1,0
44234,0.056,0.003,1.011,0.126,-2.693,0.037,0.9944,0.0042,-0.0274,0.1022,0.162,-3.178,191.727,-30.538,-1.564,2.111,0.000,0.000,0.000,-90.000,5.437,2.111,-1.000,1.000,0.105,-0.11,0.09,1,0
44252,0.057,0.004,1.011,0.165,-2.510,0.053,0.9944,0.0047,-0.0280,0.1022,0.213,-3.251,191.725,-28.172,-1.564,2.111,0.000,0.000,0.000,-90.000,5.747,2.111,-1.000,1.000,0.103,-0.11,-0.06,1,0
44494,0.068,0.003,1.011,0.307,-2.064,-0.008,0.9942,0.0051,-0.0332,0.1022,0.195,-3.841,191.737,0.000,-1.564,2.111,0.000,0.000,0.000,-1.183,7.831,2.111,-0.159,1.000,0.112,-0.13,0.63,1,0
44512,0.068,0.003,1.012,0.073,-1.977,0.047,0.9942,0.0051,-0.0330,0.1022,0.192,-3.826,191.737,0.000,-1.564,2.111,0.000,0.000,0.000,-1.107,7.943,2.111,-0.027,1.000,0.108,-0.12,0.63,1,0
44527,0.069,0.002,1.012,0.053,-1.911,0.076,0.9942,0.0046,-0.0336,0.1023,0.133,-3.887,191.743,0.000,-1.564,2.111,0.000,0.000,0.000,-0.789,8.069,2.111,0.159,1.000,0.099,-0.11,0.60,1,0
44551,0.070,0.002,1.012,-0.127,-1.865,0.097,0.9942,0.0047,-0.0340,0.1023,0.141,-3.936,191.744,0.000,-1.564,2.111,0.000,0.000,0.000,-0.694,8.322,2.111,0.211,1.000,0.099,-0.11,-0.09,1,0
44562,0.070,0.002,1.011,0.000,-1.799,0.133,0.9941,0.0047,-0.0343,0.1023,0.137,-3.970,191.745,0.000,-1.564,2.111,0.000,0.000,0.000,-0.694,8.322,2.111,0.203,1.000,0.096,-0.11,-0.09,1,0
44574,0.071,0.003,1.012,0.108,-1.732,0.080,0.9941,0.0048,-0.0345,0.1023,0.139,-3.987,191.746,0.108,-1.564,2.111,0.000,0.000,0.000,-0.222,8.479,2.111,0.162,1.000,0.096,-0.11,-0.08,1,0
44586,0.072,0.003,1.010,0.089,-1.676,0.057,0.9941,0.0052,-0.0350,0.1023,0.178,-4.047,191.744,0.108,-1.564,2.111,0.000,0.000,0.000,-0.336,8.608,2.111,0.141,1.000,0.098,-0.11,-0.08,1,0
44603,0.072,0.003,1.011,0.156,-1.547,-0.008,0.9941,0.0050,-0.0350,0.1023,0.158,-4.046,191.746,0.108,-1.564,2.111,0.000,0.000,0.000,-0.362,8.605,2.111,0.095,1.000,0.104,-0.11,-0.09,1,0
44618,0.072,0.003,1.010,0.158,-1.453,-0.069,0.9941,0.0052,-0.0350,0.1023,0.182,-4.052,191.744,0.215,-1.564,2.111,0.000,0.000,0.000,-0.369,8.759,2.111,0.051,1.000,0.113,-0.12,-0.19,1,0
44636,0.074,0.003,1.009,-0.040,-1.347,0.111,0.9941,0.0051,-0.0358,0.1023,0.167,-4.144,191.746,0.215,-1.564,2.111,0.000,0.000,0.000,0.200,8.740,2.111,0.048,1.000,0.105,-0.12,-0.18,1,0
44662,0.073,0.002,1.010,0.030,-1.276,0.180,0.9941,0.0049,-0.0358,0.1023,0.134,-4.141,191.751,0.215,-1.564,2.111,0.000,0.000,0.000,0.448,8.909,2.111,0.040,1.000,0.088,-0.12,-0.14,1,0
44676,0.074,0.003,1.011,0.059,-1.177,0.122,0.9941,0.0053,-0.0362,0.1024,0.174,-4.194,191.751,0.215,-1.564,2.111,0.000,0.000,0.000,0.429,9.018,2.111,0.006,1.000,0.092,-0.12,0.16,1,0
44694,0.074,0.003,1.012,-0.006,-1.158,0.170,0.9941,0.0051,-0.0361,0.1024,0.160,-4.174,191.754,0.215,-1.564,2.111,0.000,0.000,0.000,0.233,9.109,2.111,-0.012,1.000,0.091,-0.12,0.16,1,0
44704,0.074,0.003,1.011,0.004,-1.015,0.095,0.9941,0.0055,-0.0361,0.1024,0.199,-4.183,191.753,0.215,-1.564,2.111,0.000,0.000,0.000,0.164,9.185,2.111,-0.045,1.000,0.093,-0.11,0.15,1,0
44716,0.074,0.004,1.011,0.024,-0.883,0.097,0.9941,0.0055,-0.0362,0.1024,0.204,-4.196,191.754,0.215,-1.564,2.111,0.000,0.000,0.000,-0.059,9.194,2.111,-0.069,1.000,0.095,-0.11,0.14,1,0
44742,0.075,0.003,1.011,0.204,-0.730,0.059,0.9941,0.0052,-0.0365,0.1024,0.160,-4.226,191.760,0.215,-1.564,2.111,0.000,0.000,0.000,0.100,9.304,2.111,-0.103,1.000,0.097,-0.11,0.14,1,0
44756,0.075,0.003,1.011,0.077,-0.622,0.004,0.9940,0.0051,-0.0367,0.1024,0.149,-4.246,191.761,0.215,-1.564,2.111,0.000,0.000,0.000,0.231,9.333,2.111,-0.107,1.000,0.106,-0.11,0.12,1,0
45260,0.072,0.003,1.011,0.001,2.155,0.059,0.9941,0.0054,-0.0352,0.1026,0.198,-4.078,191.775,42.204,-1.564,2.111,0.000,0.000,0.000,90.000,8.378,2.111,0.954,0.897,0.077,-0.26,0.09,1,0
45465,0.064,0.002,1.011,0.068,2.358,-0.241,0.9942,0.0043,-0.0309,0.1026,0.122,-3.574,191.774,42.312,-1.564,2.111,0.000,0.000,0.000,90.000,6.690,2.111,0.994,0.829,0.126,-0.31,-0.12,1,0
45483,0.063,0.003,1.011,0.077,2.392,-0.169,0.9942,0.0047,-0.0307,0.1025,0.176,-3.559,191.767,42.312,-1.564,2.111,0.000,0.000,0.000,90.000,6.642,2.111,0.995,0.835,0.136,-0.31,-0.12,1,0
45498,0.063,0.004,1.012,0.016,2.583,-0.094,0.9943,0.0049,-0.0305,0.1025,0.197,-3.529,191.764,42.312,-1.564,2.111,0.000,0.000,0.000,90.000,6.599,2.111,0.996,0.821,0.127,-0.31,-0.11,1,0
45520,0.062,0.004,1.011,0.048,2.459,-0.046,0.9943,0.0050,-0.0299,0.1025,0.220,-3.468,191.762,42.312,-1.564,2.111,0.000,0.000,0.000,90.000,6.438,2.111,0.997,0.820,0.114,-0.31,-0.10,1,0
45536,0.061,0.004,1.011,0.132,2.428,0.115,0.9943,0.0048,-0.0296,0.1025,0.204,-3.427,191.764,42.312,-1.564,2.111,0.000,0.000,0.000,90.000,6.264,2.111,0.997,0.826,0.099,-0.31,-0.01,1,0
45554,0.060,0.003,1.012,-0.023,2.416,0.251,0.9943,0.0046,-0.0295,0.1025,0.180,-3.412,191.768,42.312,-1.564,2.111,0.000,0.000,0.000,90.000,6.156,2.111,0.998,0.827,0.080,-0.31,-0.01,1,0
45564,0.060,0.002,1.012,0.042,2.257,0.125,0.9943,0.0042,-0.0292,0.1026,0.136,-3.378,191.774,42.312,-1.564,2.111,0.000,0.000,0.000,90.000,6.080,2.111,0.998,0.836,0.072,-0.31,-0.01,1,0
45592,0.058,0.003,1.012,-0.108,2.242,0.059,0.9943,0.0042,-0.0284,0.1026,0.142,-3.286,191.775,42.312,-1.564,2.111,0.000,0.000,0.000,90.000,5.773,2.111,0.998,0.839,0.096,-0.30,0.54,1,0
45607,0.058,0.002,1.012,0.092,2.195,-0.121,0.9943,0.0039,-0.0282,0.1026,0.119,-3.256,191.776,42.312,-1.564,2.111,0.000,0.000,0.000,90.000,5.645,2.111,0.999,0.836,0.107,-0.29,0.54,1,0
45626,0.057,0.003,1.012,0.159,2.140,-0.323,0.9943,0.0046,-0.0277,0.1025,0.202,-3.210,191.767,42.312,-1.564,2.111,0.000,0.000,0.000,90.000,5.640,2.111,0.999,0.844,0.136,-0.28,0.52,1,0
45647,0.056,0.004,1.012,0.071,2.255,0.135,0.9943,0.0045,-0.0274,0.1025,0.187,-3.173,191.767,42.312,-1.564,2.111,0.000,0.000,0.000,90.000,5.436,2.111,0.999,0.831,0.112,-0.28,0.47,1,0
45672,0.055,0.002,1.012,0.144,2.071,-0.075,0.9943,0.0039,-0.0270,0.1025,0.123,-3.128,191.772,42.312,-1.564,2.111,0.000,0.000,0.000,90.000,5.275,2.111,0.999,0.838,0.101,-0.27,0.29,1,0
45686,0.055,0.002,1.012,-0.092,1.956,-0.008,0.9944,0.0039,-0.0269,0.1025,0.127,-3.108,191.770,42.312,-1.564,2.111,0.000,0.000,0.000,90.000,5.110,2.111,0.999,0.846,0.109,-0.27,0.27,1,0
45695,0.054,0.002,1.012,0.001,1.922,0.045,0.9944,0.0037,-0.0267,0.1025,0.107,-3.086,191.771,42.312,-1.564,2.111,0.000,0.000,0.000,90.000,5.103,2.111,0.999,0.849,0.105,-0.27,0.25,1,0
45713,0.054,0.002,1.012,-0.012,1.842,-0.119,0.9944,0.0038,-0.0264,0.1025,0.125,-3.058,191.770,42.312,-1.564,2.111,0.000,0.000,0.000,90.000,4.971,2.111,1.000,0.857,0.109,-0.26,0.12,1,0
45727,0.053,0.003,1.012,-0.073,1.752,-0.111,0.9944,0.0043,-0.0259,0.1025,0.185,-3.007,191.765,42.312,-1.564,2.111,0.000,0.000,0.000,90.000,4.862,2.111,1.000,0.865,0.116,-0.26,0.12,1,0
45747,0.053,0.003,1.012,0.184,1.708,0.049,0.9944,0.0043,-0.0257,0.1025,0.184,-2.979,191.765,42.312,-1.564,2.111,0.000,0.000,0.000,90.000,4.738,2.111,1.000,0.864,0.107,-0.26,0.12,1,0
45766,0.052,0.003,1.012,0.022,1.661,-0.062,0.9944,0.0043,-0.0253,0.1025,0.188,-2.939,191.765,42.312,-1.564,2.111,0.000,0.000,0.000,90.000,4.623,2.111,1.000,0.865,0.106,-0.26,0.11,1,0
46200,0.045,0.003,1.012,0.054,-0.534,0.175,0.9945,0.0038,-0.0218,0.1026,0.182,-2.534,191.781,42.151,-1.564,2.111,0.000,0.000,0.000,90.000,3.287,2.111,1.000,0.969,0.096,-0.29,-0.15,1,0
46212,0.045,0.003,1.011,0.091,-0.571,0.073,0.9945,0.0036,-0.0219,0.1027,0.156,-2.538,191.785,42.151,-1.564,2.111,0.000,0.000,0.000,90.000,3.204,2.111,1.000,0.959,0.088,-0.29,-0.18,1,0
46233,0.045,0.003,1.011,0.046,-0.970,0.031,0.9945,0.0037,-0.0219,0.1027,0.169,-2.542,191.784,41.989,-1.564,2.111,0.000,0.000,0.000,90.000,3.276,2.111,1.000,0.966,0.099,-0.30,-0.46,1,0
46246,0.045,0.003,1.011,0.051,-0.954,0.074,0.9945,0.0038,-0.0220,0.1027,0.171,-2.547,191.785,41.344,-1.564,2.111,0.000,0.000,0.000,90.000,3.333,2.111,1.000,0.970,0.097,-0.31,-0.46,1,0
46264,0.045,0.003,1.011,0.068,-1.063,-0.011,0.9945,0.0037,-0.0220,0.1027,0.165,-2.548,191.786,41.452,-1.564,2.111,0.000,0.000,0.000,90.000,3.316,2.111,1.000,0.975,0.103,-0.31,-0.43,1,0
46283,0.045,0.003,1.011,0.084,-1.247,0.065,0.9945,0.0040,-0.0223,0.1027,0.198,-2.584,191.785,41.452,-1.564,2.111,0.000,0.000,0.000,90.000,3.395,2.111,1.000,0.979,0.101,-0.32,-0.41,1,0
46522,0.051,0.004,1.011,0.151,-2.138,0.019,0.9944,0.0045,-0.0249,0.1027,0.220,-2.892,191.789,39.140,-1.564,2.111,0.000,0.000,0.000,90.000,4.456,2.111,1.000,0.998,0.113,-0.32,0.62,1,0
46537,0.051,0.003,1.011,0.169,-2.197,0.080,0.9944,0.0041,-0.0252,0.1027,0.172,-2.924,191.793,38.978,-1.564,2.111,0.000,0.000,0.000,90.000,4.480,2.111,1.000,0.998,0.100,-0.31,0.59,1,0
46554,0.052,0.003,1.011,0.087,-2.309,0.042,0.9944,0.0042,-0.0255,0.1027,0.174,-2.959,191.794,38.978,-1.564,2.111,0.000,0.000,0.000,90.000,4.647,2.111,1.000,0.999,0.100,-0.31,0.49,1,0
46567,0.052,0.003,1.011,0.071,-2.314,-0.002,0.9944,0.0041,-0.0256,0.1027,0.167,-2.967,191.794,38.763,-1.564,2.111,0.000,0.000,0.000,90.000,4.652,2.111,1.000,0.999,0.105,-0.31,0.49,1,0
46586,0.053,0.003,1.010,0.130,-2.341,-0.016,0.9944,0.0040,-0.0261,0.1027,0.151,-3.023,191.794,38.763,-1.564,2.111,0.000,0.000,0.000,90.000,4.774,2.111,1.000,0.999,0.110,-0.31,-0.11,1,0
46604,0.054,0.003,1.011,-0.044,-2.316,0.093,0.9943,0.0042,-0.0262,0.1027,0.173,-3.037,191.794,38.710,-1.564,2.111,0.000,0.000,0.000,90.000,4.913,2.111,1.000,0.999,0.103,-0.31,-0.10,1,0
46626,0.054,0.002,1.011,0.216,-2.323,0.067,0.9943,0.0040,-0.0267,0.1028,0.142,-3.086,191.799,37.903,-1.564,2.111,0.000,0.000,0.000,90.000,5.049,2.111,1.000,0.999,0.093,-0.32,-0.14,1,0
46640,0.055,0.003,1.011,0.085,-2.390,-0.021,0.9943,0.0044,-0.0267,0.1028,0.184,-3.100,191.796,37.903,-1.564,2.111,0.000,0.000,0.000,90.000,5.147,2.111,1.000,0.999,0.102,-0.33,-0.51,1,0
46664,0.056,0.003,1.011,0.256,-2.394,-0.067,0.9943,0.0045,-0.0275,0.1028,0.190,-3.187,191.794,37.151,-1.564,2.111,0.000,0.000,0.000,90.000,5.325,2.111,1.000,1.000,0.115,-0.34,-0.48,1,0
46680,0.056,0.003,1.011,0.240,-2.397,-0.057,0.9943,0.0046,-0.0273,0.1027,0.200,-3.186,191.794,37.151,-1.564,2.111,0.000,0.000,0.000,90.000,5.485,2.111,1.000,1.000,0.115,-0.35,-0.46,1,0
46696,0.057,0.003,1.011,0.102,-2.378,0.149,0.9943,0.0044,-0.0278,0.1028,0.173,-3.219,191.797,36.452,-1.564,2.111,0.000,0.000,0.000,90.000,5.600,2.111,1.000,1.000,0.098,-0.36,-0.46,1,0
46720,0.058,0.003,1.011,0.098,-2.418,0.038,0.9943,0.0042,-0.0283,0.1028,0.147,-3.272,191.800,36.344,-1.564,2.111,0.000,0.000,0.000,90.000,5.630,2.111,1.000,1.000,0.099,-0.37,-0.44,1,0
46744,0.059,0.003,1.011,0.163,-2.426,0.017,0.9943,0.0045,-0.0287,0.1028,0.172,-3.322,191.799,35.753,-1.564,2.111,0.000,0.000,0.000,90.000,5.925,2.111,1.000,1.000,0.103,-0.37,-0.41,1,0
46760,0.059,0.003,1.011,0.028,-2.369,0.095,0.9943,0.0046,-0.0289,0.1028,0.184,-3.351,191.799,35.699,-1.564,2.111,0.000,0.000,0.000,90.000,6.068,2.111,1.000,1.000,0.101,-0.38,-0.29,1,0
46776,0.060,0.003,1.011,0.072,-2.366,0.106,0.9943,0.0046,-0.0292,0.1028,0.183,-3.389,191.801,35.054,-1.564,2.111,0.000,0.000,0.000,90.000,6.103,2.111,1.000,1.000,0.095,-0.38,-0.27,1,0
46804,0.061,0.003,1.011,0.130,-2.283,0.023,0.9942,0.0043,-0.0298,0.1028,0.138,-3.449,191.805,35.054,-1.564,2.111,0.000,0.000,0.000,90.000,6.352,2.111,1.000,1.000,0.105,-0.39,-0.26,1,0
47647,0.072,0.004,1.012,0.058,1.593,0.174,0.9940,0.0055,-0.0353,0.1030,0.207,-4.086,191.826,-14.946,-1.564,2.111,0.000,0.000,0.000,-75.518,8.683,2.111,-0.467,0.950,0.083,-0.33,-0.18,1,0
47844,0.066,0.004,1.010,0.362,2.168,-0.207,0.9941,0.0052,-0.0324,0.1030,0.211,-3.760,191.828,-43.495,-0.978,2.111,0.000,0.000,0.000,-90.000,9.203,2.111,-0.929,0.935,0.128,-0.32,0.31,1,0
47856,0.066,0.003,1.011,0.226,2.249,-0.244,0.9941,0.0049,-0.0322,0.1030,0.177,-3.727,191.829,-43.495,-0.978,2.111,0.000,0.000,0.000,-90.000,9.129,2.111,-0.936,0.942,0.137,-0.32,0.26,1,0
47875,0.065,0.003,1.012,0.111,2.614,-0.129,0.9942,0.0047,-0.0317,0.1030,0.156,-3.670,191.827,-43.495,-0.978,2.111,0.000,0.000,0.000,-90.000,9.073,2.111,-0.948,0.933,0.136,-0.32,-0.04,1,0
47897,0.064,0.002,1.011,0.131,2.499,-0.103,0.9942,0.0042,-0.0315,0.1030,0.103,-3.638,191.828,-43.495,-0.978,2.111,0.000,0.000,0.000,-90.000,8.883,2.111,-0.958,0.932,0.123,-0.32,-0.04,1,0
47922,0.063,0.003,1.012,-0.001,2.375,0.116,0.9942,0.0049,-0.0309,0.1030,0.191,-3.583,191.822,-43.495,-0.978,2.111,0.000,0.000,0.000,-90.000,8.673,2.111,-0.967,0.942,0.104,-0.32,-0.05,1,0
47936,0.063,0.004,1.012,0.017,2.348,0.179,0.9942,0.0051,-0.0310,0.1030,0.213,-3.589,191.823,-43.495,-0.978,2.111,0.000,0.000,0.000,-90.000,8.617,2.111,-0.970,0.945,0.089,-0.33,-0.20,1,0
47945,0.062,0.004,1.012,-0.039,2.224,0.007,0.9942,0.0049,-0.0303,0.1030,0.199,-3.507,191.825,-43.495,-0.978,2.111,0.000,0.000,0.000,-90.000,8.459,2.111,-0.974,0.949,0.088,-0.33,-0.20,1,0
47958,0.062,0.004,1.012,-0.006,2.233,0.071,0.9942,0.0052,-0.0299,0.1030,0.243,-3.469,191.823,-43.495,-0.978,2.111,0.000,0.000,0.000,-90.000,8.446,2.111,-0.978,0.955,0.095,-0.33,-0.19,1,0
47975,0.061,0.003,1.012,-0.005,2.279,0.190,0.9942,0.0047,-0.0297,0.1030,0.187,-3.437,191.829,-43.495,-0.978,2.111,0.000,0.000,0.000,-90.000,8.246,2.111,-0.981,0.941,0.083,-0.34,-0.20,1,0
47984,0.061,0.002,1.011,0.243,2.099,0.028,0.9942,0.0041,-0.0297,0.1031,0.116,-3.433,191.834,-43.495,-0.978,2.111,0.000,0.000,0.000,-90.000,8.153,2.111,-0.983,0.945,0.088,-0.34,-0.20,1,0
47996,0.060,0.002,1.012,0.273,2.097,-0.160,0.9942,0.0041,-0.0295,0.1031,0.122,-3.409,191.833,-43.495,-0.978,2.111,0.000,0.000,0.000,-90.000,8.125,2.111,-0.985,0.951,0.108,-0.34,-0.34,1,0
48024,0.059,0.002,1.012,0.098,2.396,0.072,0.9942,0.0041,-0.0290,0.1031,0.126,-3.351,191.831,-43.495,-0.978,2.111,0.000,0.000,0.000,-90.000,7.877,2.111,-0.989,0.926,0.109,-0.35,-0.32,1,0
48042,0.059,0.002,1.011,0.023,2.262,-0.191,0.9943,0.0042,-0.0286,0.1030,0.142,-3.313,191.829,-43.495,-0.978,2.111,0.000,0.000,0.000,-90.000,7.785,2.111,-0.990,0.914,0.119,-0.35,-0.25,1,0
48060,0.058,0.004,1.012,-0.037,2.205,-0.070,0.9943,0.0049,-0.0283,0.1030,0.229,-3.290,191.821,-43.495,-0.978,2.111,0.000,0.000,0.000,-90.000,7.688,2.111,-0.992,0.920,0.125,-0.34,0.23,1,0
48076,0.058,0.003,1.011,0.148,2.175,0.075,0.9943,0.0045,-0.0283,0.1030,0.176,-3.277,191.824,-43.495,-0.978,2.111,0.000,0.000,0.000,-90.000,7.635,2.111,-0.993,0.928,0.111,-0.34,0.22,1,0
48102,0.057,0.003,1.011,-0.019,2.099,0.038,0.9943,0.0045,-0.0277,0.1030,0.190,-3.210,191.825,-43.495,-0.978,2.111,0.000,0.000,0.000,-90.000,7.483,2.111,-0.995,0.936,0.101,-0.34,0.21,1,0
48120,0.056,0.003,1.011,0.023,2.064,0.074,0.9943,0.0041,-0.0273,0.1030,0.144,-3.163,191.830,-43.495,-0.978,2.111,0.000,0.000,0.000,-90.000,7.326,2.111,-0.996,0.934,0.090,-0.34,0.16,1,0
48137,0.056,0.002,1.011,0.014,1.976,0.026,0.9943,0.0039,-0.0274,0.1031,0.121,-3.170,191.831,-43.495,-0.978,2.111,0.000,0.000,0.000,-90.000,7.326,2.111,-0.996,0.937,0.092,-0.34,0.16,1,0
48153,0.055,0.003,1.011,0.032,1.911,0.010,0.9943,0.0043,-0.0268,0.1030,0.178,-3.109,191.827,-43.495,-1.075,2.111,0.000,0.000,0.000,-90.000,6.761,2.111,-0.997,0.918,0.110,-0.34,-0.14,1,0
48562,0.045,0.003,1.012,0.256,-0.069,-0.001,0.9944,0.0036,-0.0223,0.1031,0.153,-2.582,191.836,-43.495,-1.173,2.111,0.000,0.000,0.000,-90.000,4.605,2.111,-1.000,0.965,0.117,-0.35,0.18,1,0
48576,0.045,0.002,1.011,0.168,-0.215,0.037,0.9944,0.0035,-0.0221,0.1031,0.140,-2.561,191.837,-43.495,-1.173,2.111,0.000,0.000,0.000,-90.000,4.605,2.111,-1.000,0.970,0.113,-0.34,0.49,1,0
48598,0.045,0.002,1.012,0.026,-0.258,0.045,0.9944,0.0034,-0.0221,0.1031,0.122,-2.564,191.839,-43.495,-1.222,2.111,0.000,0.000,0.000,-90.000,4.373,2.111,-1.000,0.970,0.105,-0.34,0.47,1,0
48614,0.045,0.002,1.012,0.069,-0.273,0.036,0.9944,0.0034,-0.0220,0.1031,0.126,-2.542,191.839,-43.495,-1.222,2.111,0.000,0.000,0.000,-90.000,4.458,2.111,-1.000,0.966,0.106,-0.33,0.47,1,0
48626,0.045,0.003,1.011,-0.047,-0.500,-0.010,0.9944,0.0038,-0.0220,0.1031,0.171,-2.552,191.837,-43.495,-1.222,2.111,0.000,0.000,0.000,-90.000,4.439,2.111,-1.000,0.972,0.112,-0.32,0.44,1,0
48636,0.045,0.003,1.011,0.044,-0.519,0.087,0.9944,0.0038,-0.0221,0.1031,0.173,-2.567,191.837,-43.495,-1.222,2.111,0.000,0.000,0.000,-90.000,4.449,2.111,-1.000,0.976,0.108,-0.32,0.36,1,0
48666,0.046,0.003,1.011,0.016,-0.678,-0.001,0.9944,0.0039,-0.0223,0.1031,0.179,-2.582,191.838,-43.495,-1.222,2.111,0.000,0.000,0.000,-90.000,4.463,2.111,-1.000,0.982,0.107,-0.33,-0.19,1,0
48846,0.047,0.003,1.011,0.070,-1.662,-0.130,0.9944,0.0039,-0.0233,0.1032,0.173,-2.697,191.842,-43.495,-1.320,2.111,0.000,0.000,0.000,-90.000,4.527,2.111,-1.000,0.996,0.121,-0.28,-0.04,1,0
48866,0.048,0.004,1.011,0.131,-1.677,0.078,0.9944,0.0045,-0.0233,0.1032,0.234,-2.708,191.839,-43.495,-1.320,2.111,0.000,0.000,0.000,-90.000,4.567,2.111,-1.000,0.997,0.118,-0.28,-0.04,1,0
48876,0.048,0.004,1.011,0.078,-1.644,0.071,0.9944,0.0042,-0.0234,0.1032,0.197,-2.721,191.841,-43.495,-1.320,2.111,0.000,0.000,0.000,-90.000,4.615,2.111,-1.000,0.997,0.112,-0.28,-0.04,1,0
48902,0.049,0.003,1.011,0.090,-1.823,-0.000,0.9944,0.0042,-0.0239,0.1032,0.193,-2.768,191.841,-43.495,-1.320,2.111,0.000,0.000,0.000,-90.000,4.806,2.111,-1.000,0.998,0.116,-0.28,-0.03,1,0
48918,0.049,0.002,1.011,0.138,-1.840,0.013,0.9944,0.0039,-0.0238,0.1032,0.159,-2.763,191.843,-43.495,-1.320,2.111,0.000,0.000,0.000,-90.000,4.821,2.111,-1.000,0.998,0.112,-0.28,0.01,1,0
48938,0.049,0.003,1.011,0.050,-1.896,-0.022,0.9944,0.0037,-0.0241,0.1032,0.136,-2.789,191.845,-43.495,-1.320,2.111,0.000,0.000,0.000,-90.000,4.828,2.111,-1.000,0.999,0.111,-0.28,0.01,1,0
48956,0.050,0.003,1.011,0.182,-1.922,0.058,0.9944,0.0039,-0.0243,0.1032,0.162,-2.812,191.843,-43.495,-1.320,2.111,0.000,0.000,0.000,-90.000,4.940,2.111,-1.000,0.999,0.109,-0.28,-0.02,1,0
48974,0.050,0.003,1.011,0.106,-1.940,0.037,0.9943,0.0042,-0.0245,0.1032,0.187,-2.842,191.843,-43.495,-1.320,2.111,0.000,0.000,0.000,-90.000,5.025,2.111,-1.000,0.999,0.106,-0.29,-0.35,1,0
48987,0.051,0.003,1.011,0.094,-2.077,0.029,0.9943,0.0041,-0.0245,0.1032,0.179,-2.847,191.844,-43.495,-1.320,2.111,0.000,0.000,0.000,-90.000,5.131,2.111,-1.000,0.999,0.104,-0.29,-0.35,1,0
49003,0.051,0.003,1.011,0.086,-2.125,0.057,0.9943,0.0043,-0.0248,0.1032,0.193,-2.874,191.844,-43.495,-1.320,2.111,0.000,0.000,0.000,-90.000,5.208,2.111,-1.000,0.999,0.104,-0.30,-0.33,1,0
49022,0.052,0.003,1.011,0.018,-2.106,-0.005,0.9943,0.0040,-0.0252,0.1032,0.157,-2.923,191.846,-43.495,-1.320,2.111,0.000,0.000,0.000,-90.000,5.297,2.111,-1.000,0.999,0.104,-0.30,-0.27,1,0
49044,0.052,0.003,1.011,0.140,-2.167,0.050,0.9943,0.0039,-0.0258,0.1032,0.143,-2.985,191.847,-43.495,-1.320,2.111,0.000,0.000,0.000,-90.000,5.412,2.111,-1.000,1.000,0.106,-0.29,0.13,1,0
49064,0.053,0.003,1.011,0.067,-2.236,0.003,0.9943,0.0042,-0.0258,0.1032,0.169,-2.992,191.847,-43.495,-1.320,2.111,0.000,0.000,0.000,-90.000,5.548,2.111,-1.000,1.000,0.104,-0.29,0.13,1,0
49086,0.054,0.003,1.011,0.129,-2.213,-0.029,0.9943,0.0043,-0.0262,0.1032,0.177,-3.036,191.846,-43.495,-1.320,2.111,0.000,0.000,0.000,-90.000,5.712,2.111,-1.000,1.000,0.112,-0.28,0.16,1,0
49098,0.054,0.003,1.011,0.164,-2.248,0.059,0.9943,0.0044,-0.0265,0.1032,0.187,-3.069,191.846,-43.495,-1.222,2.111,0.000,0.000,0.000,-90.000,6.181,2.111,-1.000,1.000,0.107,-0.27,0.51,1,0
49112,0.054,0.003,1.011,0.105,-2.260,0.058,0.9943,0.0045,-0.0267,0.1032,0.202,-3.100,191.845,-43.495,-1.222,2.111,0.000,0.000,0.000,-90.000,6.181,2.111,-1.000,1.000,0.105,-0.27,0.51,1,0
49131,0.055,0.003,1.011,0.071,-2.305,0.088,0.9943,0.0043,-0.0271,0.1032,0.164,-3.143,191.849,-43.495,-1.222,2.111,0.000,0.000,0.000,-90.000,6.340,2.111,-1.000,1.000,0.098,-0.26,0.46,1,0
49146,0.056,0.003,1.011,0.095,-2.320,0.002,0.9943,0.0042,-0.0272,0.1032,0.154,-3.150,191.850,-43.495,-1.222,2.111,0.000,0.000,0.000,-90.000,6.435,2.111,-1.000,1.000,0.102,-0.25,0.46,1,0
49166,0.057,0.003,1.011,0.096,-2.203,0.040,0.9943,0.0041,-0.0277,0.1032,0.138,-3.207,191.851,-43.495,-1.222,2.111,0.000,0.000,0.000,-90.000,6.545,2.111,-1.000,1.000,0.106,-0.26,0.37,1,0
49587,0.071,0.003,1.011,0.089,-1.128,0.043,0.9940,0.0054,-0.0349,0.1035,0.204,-4.044,191.876,-43.495,-1.222,2.111,0.000,0.000,0.000,-90.000,9.334,2.111,-1.000,1.000,0.113,-0.16,0.28,1,0
49600,0.072,0.003,1.011,0.080,-0.999,0.180,0.9940,0.0051,-0.0351,0.1035,0.163,-4.060,191.881,-43.495,-1.222,2.111,0.000,0.000,0.000,-90.000,9.393,2.111,-1.000,1.000,0.098,-0.16,0.23,1,0
49623,0.072,0.002,1.011,0.103,-0.929,0.082,0.9940,0.0047,-0.0352,0.1035,0.116,-4.066,191.888,-43.495,-1.222,2.111,0.000,0.000,0.000,-90.000,9.422,2.111,-1.000,1.000,0.088,-0.17,-0.12,1,0
49636,0.072,0.002,1.011,0.029,-0.910,-0.038,0.9940,0.0047,-0.0353,0.1035,0.113,-4.079,191.888,-43.495,-1.222,2.111,0.000,0.000,0.000,-90.000,9.533,2.111,-1.000,1.000,0.099,-0.17,-0.11,1,0
49656,0.073,0.003,1.012,0.074,-0.799,0.035,0.9940,0.0049,-0.0355,0.1035,0.141,-4.104,191.887,-43.495,-1.222,2.111,0.000,0.000,0.000,-90.000,9.593,2.111,-1.000,1.000,0.102,-0.17,-0.10,1,0
49675,0.073,0.003,1.012,-0.004,-0.611,0.109,0.9940,0.0056,-0.0357,0.1035,0.214,-4.135,191.883,-43.495,-1.222,2.111,0.000,0.000,0.000,-90.000,9.647,2.111,-1.000,1.000,0.098,-0.17,-0.11,1,0
49884,0.075,0.003,1.011,0.113,0.523,0.052,0.9939,0.0053,-0.0367,0.1036,0.168,-4.242,191.896,-43.495,-1.222,2.111,0.000,0.000,0.000,-90.000,10.011,2.111,-1.000,0.999,0.109,-0.18,0.48,1,0
49902,0.075,0.004,1.012,-0.001,0.682,0.053,0.9939,0.0057,-0.0367,0.1036,0.214,-4.254,191.893,-43.495,-1.222,2.111,0.000,0.000,0.000,-90.000,10.072,2.111,-1.000,0.999,0.102,-0.17,0.37,1,0
49922,0.075,0.003,1.011,0.076,0.732,0.036,0.9939,0.0056,-0.0365,0.1036,0.200,-4.230,191.896,-43.495,-1.222,2.111,0.000,0.000,0.000,-90.000,9.986,2.111,-1.000,0.999,0.098,-0.17,0.36,1,0
49944,0.075,0.003,1.012,0.008,0.764,0.004,0.9939,0.0054,-0.0365,0.1036,0.177,-4.226,191.898,-43.495,-1.222,2.111,0.000,0.000,0.000,-90.000,10.068,2.111,-1.000,0.999,0.105,-0.17,0.30,1,0
49961,0.075,0.003,1.012,0.057,0.910,0.062,0.9939,0.0052,-0.0365,0.1036,0.155,-4.228,191.900,-43.495,-1.222,2.111,0.000,0.000,0.000,-90.000,9.990,2.111,-1.000,0.999,0.104,-0.17,-0.08,1,0
49976,0.075,0.003,1.012,0.060,0.933,0.025,0.9939,0.0052,-0.0365,0.1036,0.157,-4.219,191.900,-43.495,-1.222,2.111,0.000,0.000,0.000,-90.000,9.883,2.111,-1.000,0.999,0.102,-0.17,-0.08,1,0
49992,0.074,0.003,1.012,0.095,1.051,0.038,0.9939,0.0050,-0.0363,0.1037,0.138,-4.200,191.903,-43.495,-1.222,2.111,0.000,0.000,0.000,-90.000,9.890,2.111,-1.000,0.995,0.098,-0.17,-0.11,1,0
50012,0.074,0.003,1.012,0.173,1.051,-0.053,0.9939,0.0052,-0.0362,0.1037,0.165,-4.186,191.901,-43.495,-1.222,2.111,0.000,0.000,0.000,-90.000,9.841,2.111,-1.000,0.996,0.106,-0.18,-0.40,1,0
50026,0.074,0.003,1.012,0.123,1.151,-0.095,0.9939,0.0052,-0.0363,0.1037,0.156,-4.195,191.901,-43.495,-1.222,2.111,0.000,0.000,0.000,-90.000,9.826,2.111,-1.000,0.996,0.115,-0.19,-0.40,1,0
50054,0.073,0.003,1.012,0.075,1.327,-0.033,0.9940,0.0053,-0.0357,0.1036,0.179,-4.135,191.898,-43.495,-1.222,2.111,0.000,0.000,0.000,-90.000,9.773,2.111,-1.000,0.994,0.113,-0.19,-0.35,1,0
50072,0.073,0.003,1.012,-0.011,1.384,-0.050,0.9940,0.0053,-0.0355,0.1036,0.179,-4.113,191.898,-43.495,-1.222,2.111,0.000,0.000,0.000,-90.000,9.599,2.111,-1.000,0.990,0.110,-0.20,-0.21,1,0
50092,0.072,0.003,1.012,0.052,1.462,0.063,0.9940,0.0053,-0.0353,0.1036,0.180,-4.089,191.898,-43.495,-1.222,2.111,0.000,0.000,0.000,-90.000,9.552,2.111,-1.000,0.982,0.104,-0.20,-0.21,1,0
50112,0.072,0.003,1.012,0.056,1.468,0.092,0.9940,0.0054,-0.0352,0.1036,0.195,-4.080,191.899,-43.495,-1.222,2.111,0.000,0.000,0.000,-90.000,9.458,2.111,-1.000,0.982,0.094,-0.21,-0.20,1,0
50124,0.072,0.003,1.012,0.026,1.497,0.042,0.9940,0.0054,-0.0349,0.1037,0.197,-4.047,191.900,-43.495,-1.222,2.111,0.000,0.000,0.000,-90.000,9.335,2.111,-1.000,0.982,0.094,-0.21,-0.18,1,0
50154,0.071,0.004,1.012,0.116,1.615,-0.134,0.9940,0.0055,-0.0345,0.1036,0.215,-4.003,191.897,-43.495,-1.222,2.111,0.000,0.000,0.000,-90.000,9.350,2.111,-1.000,0.983,0.120,-0.21,-0.05,1,0
50166,0.071,0.004,1.012,0.073,1.685,0.006,0.9940,0.0055,-0.0346,0.1036,0.217,-4.012,191.896,-43.495,-1.222,2.111,0.000,0.000,0.000,-90.000,9.326,2.111,-1.000,0.984,0.116,-0.21,-0.05,1,0
50186,0.071,0.003,1.012,0.103,1.813,0.050,0.9940,0.0048,-0.0345,0.1037,0.141,-3.989,191.904,-43.495,-1.222,2.111,0.000,0.000,0.000,-90.000,9.220,2.111,-1.000,0.968,0.096,-0.21,-0.05,1,0
50603,0.057,0.003,1.011,-0.100,1.840,0.006,0.9942,0.0046,-0.0277,0.1037,0.195,-3.218,191.903,-43.495,-1.222,2.111,0.000,0.000,0.000,-90.000,6.734,2.111,-1.000,0.903,0.092,-0.18,0.58,1,0
50616,0.056,0.003,1.011,-0.058,1.803,0.026,0.9942,0.0045,-0.0275,0.1037,0.184,-3.193,191.904,-43.495,-1.173,2.111,0.000,0.000,0.000,-90.000,6.505,2.111,-1.000,0.901,0.095,-0.17,0.55,1,0
50635,0.056,0.003,1.011,0.057,1.703,-0.039,0.9942,0.0042,-0.0272,0.1037,0.153,-3.149,191.905,-43.495,-1.222,2.111,0.000,0.000,0.000,-90.000,6.684,2.111,-1.000,0.913,0.100,-0.17,0.49,1,0
50652,0.055,0.003,1.011,0.000,1.572,-0.073,0.9942,0.0044,-0.0270,0.1037,0.176,-3.124,191.903,-43.495,-1.222,2.111,0.000,0.000,0.000,-90.000,6.510,2.111,-1.000,0.918,0.106,-0.16,0.19,1,0
50665,0.055,0.004,1.011,0.104,1.697,0.069,0.9942,0.0048,-0.0269,0.1037,0.226,-3.122,191.900,-43.495,-1.173,2.111,0.000,0.000,0.000,-90.000,6.289,2.111,-1.000,0.919,0.104,-0.16,0.19,1,0
50683,0.054,0.003,1.012,0.100,1.749,0.177,0.9942,0.0044,-0.0264,0.1037,0.193,-3.062,191.906,-43.495,-1.173,2.111,0.000,0.000,0.000,-90.000,6.334,2.111,-1.000,0.908,0.083,-0.16,0.10,1,0
50703,0.053,0.002,1.012,0.088,1.544,-0.197,0.9943,0.0040,-0.0261,0.1037,0.146,-3.019,191.907,-43.495,-1.173,2.111,0.000,0.000,0.000,-90.000,6.151,2.111,-1.000,0.916,0.108,-0.16,0.10,1,0
50936,0.048,0.003,1.012,-0.022,0.563,0.040,0.9943,0.0038,-0.0236,0.1037,0.148,-2.733,191.909,-43.495,-1.173,2.111,0.000,0.000,0.000,-90.000,5.033,2.111,-1.000,0.935,0.111,-0.23,-0.19,1,0
50954,0.048,0.003,1.012,-0.011,0.554,0.031,0.9943,0.0037,-0.0233,0.1038,0.143,-2.697,191.911,-43.495,-1.173,2.111,0.000,0.000,0.000,-90.000,5.154,2.111,-1.000,0.936,0.107,-0.24,-0.18,1,0
50972,0.048,0.003,1.012,0.087,0.435,0.021,0.9943,0.0037,-0.0232,0.1038,0.145,-2.691,191.911,-43.495,-1.173,2.111,0.000,0.000,0.000,-90.000,5.053,2.111,-1.000,0.944,0.109,-0.24,-0.18,1,0
50995,0.047,0.002,1.012,-0.006,0.249,0.019,0.9943,0.0037,-0.0231,0.1038,0.144,-2.678,191.912,-43.495,-1.173,2.111,0.000,0.000,0.000,-90.000,4.969,2.111,-1.000,0.957,0.107,-0.24,-0.01,1,0
51015,0.047,0.003,1.011,0.117,0.176,-0.023,0.9943,0.0037,-0.0230,0.1038,0.147,-2.667,191.911,-43.495,-1.222,2.111,0.000,0.000,0.000,-90.000,5.010,2.111,-1.000,0.965,0.114,-0.24,-0.01,1,0
51032,0.047,0.003,1.012,0.077,0.010,0.107,0.9943,0.0039,-0.0229,0.1038,0.172,-2.658,191.911,-43.495,-1.173,2.111,0.000,0.000,0.000,-90.000,4.916,2.111,-1.000,0.966,0.107,-0.24,-0.06,1,0
51050,0.047,0.003,1.011,0.099,-0.061,0.126,0.9943,0.0041,-0.0229,0.1038,0.197,-2.663,191.912,-43.495,-1.173,2.111,0.000,0.000,0.000,-90.000,4.940,2.111,-1.000,0.971,0.098,-0.25,-0.06,1,0
51067,0.047,0.003,1.011,0.115,-0.166,0.024,0.9943,0.0037,-0.0229,0.1038,0.152,-2.655,191.916,-43.495,-1.173,2.111,0.000,0.000,0.000,-90.000,4.905,2.111,-1.000,0.976,0.099,-0.26,-0.47,1,0
51084,0.047,0.003,1.012,0.136,-0.276,-0.002,0.9943,0.0036,-0.0230,0.1038,0.140,-2.663,191.916,-43.495,-1.173,2.111,0.000,0.000,0.000,-90.000,4.873,2.111,-1.000,0.980,0.107,-0.27,-0.45,1,0
51103,0.047,0.003,1.011,0.088,-0.355,0.097,0.9943,0.0039,-0.0230,0.1038,0.169,-2.671,191.916,-43.495,-1.222,2.111,0.000,0.000,0.000,-90.000,4.810,2.111,-1.000,0.983,0.105,-0.26,-0.33,1,0
51120,0.047,0.003,1.011,-0.055,-0.287,0.219,0.9943,0.0039,-0.0230,0.1038,0.169,-2.673,191.919,-43.495,-1.222,2.111,0.000,0.000,0.000,-90.000,4.796,2.111,-1.000,0.976,0.088,-0.25,0.48,1,0
51134,0.047,0.002,1.011,0.012,-0.364,0.060,0.9943,0.0036,-0.0231,0.1039,0.133,-2.675,191.923,-43.495,-1.222,2.111,0.000,0.000,0.000,-90.000,4.816,2.111,-1.000,0.977,0.091,-0.25,0.45,1,0
51150,0.047,0.002,1.011,0.098,-0.613,-0.044,0.9943,0.0035,-0.0234,0.1039,0.122,-2.704,191.923,-43.495,-1.222,2.111,0.000,0.000,0.000,-90.000,4.905,2.111,-1.000,0.980,0.105,-0.24,0.45,1,0
51166,0.047,0.003,1.011,0.098,-0.694,-0.135,0.9943,0.0039,-0.0231,0.1038,0.172,-2.682,191.919,-43.495,-1.222,2.111,0.000,0.000,0.000,-90.000,4.825,2.111,-1.000,0.984,0.123,-0.23,0.43,1,0
51194,0.047,0.003,1.011,0.158,-0.801,0.041,0.9943,0.0038,-0.0231,0.1038,0.156,-2.677,191.919,-43.495,-1.222,2.111,0.000,0.000,0.000,-90.000,4.741,2.111,-1.000,0.988,0.110,-0.22,0.34,1,0
51214,0.047,0.003,1.011,0.113,-0.848,0.067,0.9943,0.0036,-0.0231,0.1038,0.136,-2.682,191.921,-43.495,-1.222,2.111,0.000,0.000,0.000,-90.000,4.780,2.111,-1.000,0.990,0.105,-0.22,0.33,1,0
51672,0.058,0.003,1.011,0.221,-1.975,0.045,0.9942,0.0045,-0.0282,0.1041,0.175,-3.267,191.953,-43.495,-1.222,2.111,0.000,0.000,0.000,-90.000,6.786,2.111,-1.000,1.000,0.113,-0.37,-0.58,1,0
51696,0.058,0.002,1.011,0.102,-2.019,0.059,0.9941,0.0042,-0.0287,0.1041,0.134,-3.325,191.957,-43.495,-1.222,2.111,0.000,0.000,0.000,-90.000,6.854,2.111,-1.000,1.000,0.105,-0.37,0.11,1,0
51714,0.059,0.002,1.011,0.146,-2.078,-0.030,0.9941,0.0041,-0.0288,0.1042,0.124,-3.329,191.958,-43.495,-1.222,2.111,0.000,0.000,0.000,-90.000,7.058,2.111,-1.000,1.000,0.111,-0.36,0.10,1,0
51930,0.066,0.003,1.012,0.098,-1.588,0.053,0.9940,0.0050,-0.0322,0.1042,0.188,-3.734,191.963,-43.495,-1.222,2.111,0.000,0.000,0.000,-90.000,8.233,2.111,-1.000,1.000,0.100,-0.37,0.04,1,0
51945,0.066,0.003,1.012,0.188,-1.581,-0.056,0.9940,0.0049,-0.0325,0.1042,0.169,-3.763,191.965,-43.495,-1.222,2.111,0.000,0.000,0.000,-90.000,8.389,2.111,-1.000,1.000,0.106,-0.37,0.01,1,0
51964,0.067,0.004,1.012,-0.026,-1.448,0.130,0.9940,0.0055,-0.0327,0.1042,0.239,-3.792,191.961,-43.495,-1.222,2.111,0.000,0.000,0.000,-90.000,8.521,2.111,-1.000,1.000,0.102,-0.38,-0.21,1,0
51984,0.068,0.003,1.012,0.211,-1.319,-0.021,0.9940,0.0051,-0.0330,0.1042,0.187,-3.825,191.967,-43.495,-1.222,2.111,0.000,0.000,0.000,-90.000,8.602,2.111,-1.000,0.997,0.097,-0.38,-0.20,1,0
51996,0.068,0.004,1.011,0.100,-1.337,-0.071,0.9940,0.0052,-0.0331,0.1042,0.199,-3.831,191.966,-43.495,-1.222,2.111,0.000,0.000,0.000,-90.000,8.655,2.111,-1.000,0.998,0.106,-0.38,-0.19,1,0
52014,0.068,0.003,1.011,0.175,-1.320,-0.075,0.9940,0.0051,-0.0334,0.1042,0.186,-3.865,191.966,-43.495,-1.222,2.111,0.000,0.000,0.000,-90.000,8.794,2.111,-1.000,0.998,0.115,-0.38,-0.14,1,0
52034,0.069,0.004,1.011,0.092,-1.201,0.010,0.9940,0.0056,-0.0338,0.1042,0.238,-3.917,191.961,-43.495,-1.222,2.111,0.000,0.000,0.000,-90.000,8.878,2.111,-1.000,0.998,0.116,-0.38,0.18,1,0
52047,0.069,0.004,1.011,-0.035,-1.080,0.182,0.9940,0.0057,-0.0338,0.1042,0.243,-3.926,191.962,-43.495,-1.222,2.111,0.000,0.000,0.000,-90.000,8.950,2.111,-1.000,0.999,0.100,-0.38,0.18,1,0
52063,0.070,0.004,1.011,0.127,-1.082,0.167,0.9940,0.0053,-0.0340,0.1043,0.200,-3.935,191.969,-43.495,-1.222,2.111,0.000,0.000,0.000,-90.000,8.982,2.111,-1.000,0.999,0.085,-0.38,0.17,1,0
52080,0.070,0.004,1.011,-0.019,-0.990,0.080,0.9939,0.0056,-0.0341,0.1043,0.226,-3.959,191.968,-43.495,-1.320,2.111,0.000,0.000,0.000,-90.000,9.077,2.111,-1.000,0.999,0.092,-0.38,0.11,1,0
52104,0.070,0.003,1.011,0.173,-1.030,-0.064,0.9939,0.0052,-0.0345,0.1043,0.179,-3.995,191.971,-43.495,-1.320,2.111,0.000,0.000,0.000,-90.000,9.124,2.111,-1.000,0.999,0.108,-0.39,-0.32,1,0
52121,0.071,0.004,1.012,0.172,-0.911,-0.094,0.9939,0.0055,-0.0345,0.1042,0.218,-3.998,191.967,-43.495,-1.222,2.111,0.000,0.000,0.000,-90.000,9.201,2.111,-1.000,0.999,0.119,-0.39,-0.31,1,0
52138,0.071,0.004,1.012,0.059,-0.661,0.121,0.9939,0.0057,-0.0347,0.1042,0.233,-4.028,191.966,-43.495,-1.222,2.111,0.000,0.000,0.000,-90.000,9.274,2.111,-1.000,0.999,0.107,-0.39,-0.20,1,0
52154,0.072,0.003,1.011,0.220,-0.607,0.110,0.9939,0.0053,-0.0350,0.1043,0.185,-4.055,191.972,-43.495,-1.222,2.111,0.000,0.000,0.000,-90.000,9.402,2.111,-1.000,1.000,0.094,-0.38,0.58,1,0
52170,0.072,0.003,1.011,0.046,-0.654,-0.106,0.9939,0.0051,-0.0350,0.1043,0.165,-4.045,191.974,-43.495,-1.222,2.111,0.000,0.000,0.000,-90.000,9.373,2.111,-1.000,1.000,0.106,-0.37,0.55,1,0
52186,0.072,0.003,1.011,0.138,-0.604,-0.145,0.9939,0.0053,-0.0352,0.1043,0.181,-4.073,191.971,-43.495,-1.222,2.111,0.000,0.000,0.000,-90.000,9.383,2.111,-1.000,1.000,0.119,-0.36,0.55,1,0
52201,0.072,0.004,1.011,0.151,-0.481,-0.046,0.9939,0.0056,-0.0352,0.1042,0.216,-4.080,191.967,-43.495,-1.222,2.111,0.000,0.000,0.000,-90.000,9.477,2.111,-1.000,1.000,0.119,-0.35,0.52,1,0
52215,0.072,0.004,1.011,-0.065,-0.284,0.052,0.9939,0.0057,-0.0353,0.1042,0.226,-4.087,191.967,-43.495,-1.222,2.111,0.000,0.000,0.000,-90.000,9.580,2.111,-1.000,1.000,0.108,-0.35,0.43,1,0
