timestamp,accel_x,accel_y,accel_z,gyro_x,gyro_y,gyro_z,quat_w,quat_x,quat_y,quat_z,roll,pitch,yaw,att_sp_roll,att_sp_pitch,att_sp_yaw,rate_sp_roll,rate_sp_pitch,rate_sp_yaw,att_cmd_roll,att_cmd_pitch,att_cmd_yaw,rate_cmd_roll,rate_cmd_pitch,rate_cmd_yaw,altitude,climb_rate,flight_state,flight_mode
26727,0.050,-0.005,1.018,1.208,0.941,0.970,0.9892,0.0013,-0.0247,0.1446,-0.261,-2.798,196.643,0.215,-1.564,2.111,0.000,0.000,0.000,2.663,4.406,2.111,0.078,0.391,-0.050,0.05,0.32,1,0
26759,0.053,0.001,1.019,0.472,-0.221,-2.134,0.9892,0.0045,-0.0259,0.1440,0.077,-3.011,196.558,0.215,-1.564,2.111,0.000,0.000,0.000,0.498,4.828,2.111,0.109,0.219,0.416,0.04,-0.35,1,0
26775,0.053,0.003,1.020,1.080,0.383,-2.686,0.9893,0.0051,-0.0257,0.1436,0.158,-2.996,196.510,0.215,-1.564,2.111,0.000,0.000,0.000,0.462,4.943,2.111,-0.009,0.150,0.464,0.04,-0.37,1,0
26787,0.053,0.003,1.020,0.286,0.736,-3.340,0.9893,0.0051,-0.0258,0.1433,0.153,-3.007,196.474,0.215,-1.564,2.111,0.000,0.000,0.000,0.470,4.960,2.111,-0.028,0.090,0.509,0.03,-0.37,1,0
26804,0.053,0.003,1.020,-1.081,0.808,-4.332,0.9894,0.0048,-0.0254,0.1427,0.127,-2.955,196.412,0.215,-1.564,2.111,0.000,0.000,0.000,0.243,4.848,2.111,0.050,0.037,0.589,0.02,-0.70,1,0
26819,0.052,0.003,1.017,-1.866,0.164,-5.941,0.9895,0.0046,-0.0251,0.1422,0.109,-2.923,196.348,0.215,-1.564,2.111,0.000,0.000,0.000,0.812,4.777,2.111,0.132,0.057,0.636,0.01,-0.67,1,0
26847,0.050,0.010,1.013,-10.169,-1.554,-8.660,0.9898,0.0059,-0.0244,0.1401,0.276,-2.860,196.108,0.215,-1.564,2.111,0.000,0.000,0.000,-0.269,4.537,2.111,0.359,0.264,0.731,-0.00,-0.59,1,0
26866,0.048,0.010,1.014,-14.181,-2.585,-10.537,0.9901,0.0056,-0.0241,0.1383,0.250,-2.826,195.903,0.215,-1.564,2.111,0.000,0.000,0.000,-0.282,4.436,2.111,0.476,0.389,0.780,-0.01,-0.19,1,0
26884,0.048,0.009,1.016,-14.752,-3.940,-11.660,0.9903,0.0050,-0.0241,0.1365,0.191,-2.814,195.691,0.215,-1.564,2.111,0.000,0.000,0.000,0.050,4.379,2.111,0.563,0.490,0.817,-0.01,-0.18,1,0
26907,0.052,0.006,1.021,-15.321,-3.518,-11.819,0.9907,0.0043,-0.0246,0.1339,0.107,-2.857,195.393,0.215,-1.564,2.111,0.000,0.000,0.000,0.454,4.381,2.111,0.650,0.556,0.853,-0.02,-0.19,1,0
26919,0.054,0.004,1.023,-15.695,-2.771,-11.720,0.9908,0.0040,-0.0253,0.1330,0.066,-2.929,195.295,0.215,-1.564,2.111,0.000,0.000,0.000,0.649,4.568,2.111,0.684,0.506,0.862,-0.02,-0.37,1,0
26938,0.060,-0.003,1.026,-15.443,0.480,-11.518,0.9910,0.0019,-0.0276,0.1309,-0.194,-3.171,195.059,0.215,-1.564,2.111,0.000,0.000,0.000,1.935,5.452,2.111,0.742,0.265,0.842,-0.03,-0.35,1,0
26957,0.064,-0.012,1.032,-15.029,4.061,-10.584,0.9912,-0.0011,-0.0295,0.1290,-0.567,-3.336,194.842,0.215,-1.564,2.111,0.000,0.000,0.000,3.688,6.054,2.111,0.789,0.033,0.739,-0.03,-0.33,1,0
26974,0.067,-0.024,1.037,-12.201,7.201,-9.871,0.9914,-0.0045,-0.0302,0.1273,-0.952,-3.373,194.666,0.215,-1.564,2.111,0.000,0.000,0.000,6.044,6.313,2.111,0.824,-0.139,0.611,-0.04,-0.28,1,0
26986,0.067,-0.029,1.038,-10.440,8.631,-9.634,0.9915,-0.0059,-0.0303,0.1266,-1.112,-3.360,194.591,0.215,-1.564,2.111,0.000,0.000,0.000,7.188,6.285,2.111,0.822,-0.237,0.538,-0.04,-0.28,1,0
26999,0.069,-0.039,1.039,-6.062,11.208,-8.835,0.9916,-0.0084,-0.0301,0.1254,-1.386,-3.302,194.449,0.215,-1.564,2.111,0.000,0.000,0.000,8.407,6.162,2.111,0.756,-0.324,0.461,-0.04,0.05,1,0
27019,0.071,-0.051,1.033,1.051,14.808,-7.777,0.9918,-0.0105,-0.0291,0.1239,-1.614,-3.161,194.288,0.215,-1.564,2.111,0.000,0.000,0.000,9.799,5.796,2.111,0.467,-0.448,0.320,-0.03,0.05,1,0
27034,0.071,-0.058,1.029,5.552,16.628,-6.409,0.9920,-0.0115,-0.0278,0.1229,-1.705,-3.004,194.176,0.215,-1.564,2.111,0.000,0.000,0.000,10.622,5.172,2.111,0.248,-0.530,0.183,-0.03,0.06,1,0
27053,0.067,-0.065,1.021,8.907,17.410,-4.278,0.9921,-0.0121,-0.0261,0.1222,-1.746,-2.796,194.082,0.215,-1.564,2.111,0.000,0.000,0.000,10.943,4.301,2.111,0.041,-0.608,-0.012,-0.03,0.18,1,0
27075,0.060,-0.073,1.009,14.149,17.308,-1.247,0.9922,-0.0122,-0.0236,0.1217,-1.719,-2.513,194.020,0.215,-1.564,2.111,0.000,0.000,0.000,10.866,3.500,2.111,-0.167,-0.686,-0.209,-0.03,0.17,1,0
27088,0.052,-0.076,1.005,17.509,16.581,0.875,0.9922,-0.0119,-0.0221,0.1217,-1.659,-2.346,194.020,0.215,-1.564,2.111,0.000,0.000,0.000,10.653,3.023,2.111,-0.262,-0.721,-0.299,-0.02,0.17,1,0
27112,0.040,-0.074,1.001,22.077,13.639,4.155,0.9922,-0.0105,-0.0193,0.1223,-1.460,-2.047,194.081,0.215,-1.564,2.111,0.000,0.000,0.000,9.808,2.051,2.111,-0.409,-0.569,-0.439,-0.03,0.11,1,0
27127,0.031,-0.066,0.998,21.316,10.636,6.498,0.9922,-0.0091,-0.0172,0.1232,-1.277,-1.832,194.181,0.215,-1.564,2.111,0.000,0.000,0.000,8.659,1.171,2.111,-0.507,-0.324,-0.532,-0.04,-0.30,1,0
27634,0.078,-0.029,1.018,1.887,1.536,24.053,0.9869,-0.0064,-0.0334,0.1578,-1.330,-3.668,198.213,0.215,-1.564,2.111,0.000,0.000,0.000,8.488,7.162,2.111,0.680,0.384,-0.907,0.04,0.29,1,0
27667,0.077,-0.029,1.017,6.105,1.842,27.663,0.9854,-0.0066,-0.0362,0.1664,-1.437,-3.965,199.225,0.215,-1.564,2.111,0.000,0.000,0.000,9.152,8.224,2.111,0.357,0.422,-0.937,0.03,-0.47,1,0
27687,0.075,-0.024,1.018,9.217,1.566,28.256,0.9845,-0.0055,-0.0375,0.1712,-1.361,-4.124,199.782,0.215,-1.564,2.111,0.000,0.000,0.000,9.151,8.763,2.111,0.118,0.505,-0.948,0.02,-0.44,1,0
27700,0.072,-0.017,1.017,10.444,1.365,28.369,0.9839,-0.0032,-0.0368,0.1746,-1.097,-4.092,200.168,0.215,-1.564,2.111,0.000,0.000,0.000,8.402,8.975,2.111,-0.029,0.563,-0.955,0.01,-0.37,1,0
27715,0.069,-0.007,1.016,10.272,1.070,27.956,0.9834,-0.0008,-0.0359,0.1780,-0.824,-4.028,200.552,0.215,-1.564,2.111,0.000,0.000,0.000,6.214,8.664,2.111,-0.157,0.594,-0.961,0.01,-0.35,1,0
27724,0.068,-0.003,1.014,10.037,1.113,27.677,0.9831,0.0002,-0.0354,0.1795,-0.710,-3.997,200.715,0.215,-1.564,2.111,0.000,0.000,0.000,5.161,8.492,2.111,-0.238,0.580,-0.961,0.01,-0.35,1,0
27743,0.062,0.009,1.011,6.447,1.048,26.101,0.9822,0.0034,-0.0338,0.1845,-0.328,-3.879,201.291,0.215,-1.564,2.111,0.000,0.000,0.000,3.199,8.122,2.111,-0.271,0.516,-0.881,-0.00,-0.33,1,0
27766,0.055,0.021,1.008,3.082,-0.095,23.459,0.9813,0.0061,-0.0322,0.1896,-0.017,-3.750,201.868,0.215,-1.564,2.111,0.000,0.000,0.000,1.689,7.742,2.111,-0.094,0.519,-0.630,0.00,-0.25,1,0
27794,0.044,0.032,1.009,4.044,-0.970,20.559,0.9805,0.0082,-0.0307,0.1937,0.240,-3.632,202.338,0.215,-1.564,2.111,0.000,0.000,0.000,0.391,7.372,2.111,-0.132,0.568,-0.331,0.01,0.34,1,0
27807,0.036,0.040,1.009,5.926,-1.059,18.526,0.9801,0.0097,-0.0297,0.1960,0.421,-3.550,202.602,0.215,-1.564,2.111,0.000,0.000,0.000,-0.995,6.974,2.111,-0.245,0.565,-0.156,0.02,0.33,1,0
27820,0.025,0.054,1.012,8.151,-1.127,15.541,0.9796,0.0119,-0.0282,0.1986,0.692,-3.440,202.896,0.215,-1.564,2.111,0.000,0.000,0.000,-1.793,6.762,2.111,-0.370,0.518,0.037,0.01,0.26,1,0
27846,0.011,0.075,1.012,7.808,-1.230,11.136,0.9791,0.0150,-0.0263,0.2013,1.080,-3.295,203.202,0.215,-1.564,2.111,0.000,0.000,0.000,-4.472,6.124,2.111,-0.506,0.429,0.244,0.01,-0.21,1,0
27868,-0.001,0.094,1.008,6.304,-1.263,5.512,0.9787,0.0180,-0.0244,0.2029,1.449,-3.154,203.386,0.215,-1.564,2.111,0.000,0.000,0.000,-6.215,5.714,2.111,-0.604,0.352,0.395,0.01,-0.20,1,0
27886,-0.010,0.108,1.005,5.195,-1.810,0.269,0.9786,0.0200,-0.0230,0.2033,1.710,-3.052,203.424,0.215,-1.564,2.111,0.000,0.000,0.000,-7.869,5.308,2.111,-0.676,0.325,0.505,0.01,-0.16,1,0
27904,-0.016,0.119,1.002,3.146,-2.716,-4.855,0.9787,0.0217,-0.0220,0.2029,1.922,-2.973,203.374,0.215,-1.564,2.111,0.000,0.000,0.000,-9.388,4.951,2.111,-0.688,0.374,0.588,0.01,0.11,1,0
27920,-0.021,0.128,1.000,1.394,-3.408,-10.144,0.9789,0.0231,-0.0211,0.2018,2.107,-2.905,203.240,0.215,-1.564,2.111,0.000,0.000,0.000,-10.057,4.796,2.111,-0.647,0.433,0.642,0.01,0.11,1,0
27936,-0.025,0.136,1.002,-0.512,-4.323,-15.291,0.9793,0.0243,-0.0204,0.1999,2.268,-2.846,203.021,0.215,-1.564,2.111,0.000,0.000,0.000,-11.246,4.523,2.111,-0.594,0.509,0.695,0.01,0.12,1,0
27963,-0.029,0.145,1.002,-4.722,-4.941,-21.704,0.9802,0.0257,-0.0195,0.1956,2.451,-2.771,202.511,0.215,-1.564,2.111,0.000,0.000,0.000,-12.224,4.291,2.111,-0.380,0.598,0.766,0.02,0.26,1,0
27976,-0.032,0.148,1.005,-4.943,-4.411,-25.293,0.9809,0.0263,-0.0190,0.1918,2.545,-2.710,202.071,0.215,-1.564,2.111,0.000,0.000,0.000,-12.772,4.102,2.111,-0.300,0.540,0.805,0.02,0.24,1,0
27994,-0.033,0.150,1.008,-2.654,-4.598,-28.009,0.9816,0.0270,-0.0184,0.1881,2.650,-2.650,201.632,0.215,-1.564,2.111,0.000,0.000,0.000,-13.420,3.844,2.111,-0.383,0.484,0.834,0.03,0.23,1,0
28013,-0.036,0.151,1.011,2.850,-4.844,-31.626,0.9825,0.0285,-0.0176,0.1834,2.840,-2.581,201.081,0.215,-1.564,2.111,0.000,0.000,0.000,-14.654,3.548,2.111,-0.486,0.455,0.861,0.03,0.15,1,0
28029,-0.031,0.152,1.009,6.038,-4.667,-35.705,0.9833,0.0304,-0.0168,0.1787,3.090,-2.515,200.530,0.215,-1.564,2.111,0.000,0.000,0.000,-15.314,3.436,2.111,-0.563,0.415,0.882,0.02,0.15,1,0
28059,-0.013,0.151,1.006,-2.110,-4.161,-44.931,0.9850,0.0335,-0.0154,0.1688,3.487,-2.382,199.381,0.215,-1.564,2.111,0.000,0.000,0.000,-17.910,2.951,2.111,-0.594,0.254,0.911,0.01,-0.47,1,0
28074,-0.003,0.149,1.006,-9.624,-5.038,-49.120,0.9858,0.0339,-0.0150,0.1639,3.553,-2.335,198.805,0.215,-1.564,2.111,0.000,0.000,0.000,-18.438,2.793,2.111,-0.412,0.273,0.921,0.00,-0.47,1,0
28446,0.120,-0.095,1.012,-3.206,-10.349,-14.006,0.9983,-0.0185,-0.0543,0.0102,-2.194,-6.201,181.294,0.215,-1.564,2.111,0.000,0.000,0.000,12.998,15.910,2.111,0.732,0.934,-0.542,-0.02,0.29,1,0
28484,0.128,-0.103,1.019,-4.285,-7.258,-11.567,0.9980,-0.0230,-0.0576,0.0066,-2.698,-6.587,180.918,0.215,-1.564,2.111,0.000,0.000,0.000,15.573,17.244,2.111,0.813,0.777,-0.667,-0.03,-0.27,1,0
28499,0.130,-0.105,1.021,-0.134,-5.242,-9.653,0.9979,-0.0250,-0.0590,0.0051,-2.918,-6.744,180.755,0.215,-1.564,2.111,0.000,0.000,0.000,16.963,17.852,2.111,0.823,0.642,-0.705,-0.03,-0.25,1,0
28518,0.132,-0.104,1.023,3.745,-3.022,-7.112,0.9978,-0.0265,-0.0600,0.0038,-3.082,-6.868,180.620,0.215,-1.564,2.111,0.000,0.000,0.000,18.137,18.397,2.111,0.682,0.455,-0.759,-0.03,-0.24,1,0
28540,0.132,-0.101,1.024,4.300,-1.803,-5.848,0.9978,-0.0271,-0.0604,0.0033,-3.146,-6.913,180.571,0.215,-1.564,2.111,0.000,0.000,0.000,18.799,18.690,2.111,0.643,0.238,-0.803,-0.04,-0.22,1,0
28556,0.132,-0.096,1.030,2.046,0.771,-2.482,0.9977,-0.0290,-0.0610,0.0025,-3.356,-6.980,180.496,0.215,-1.564,2.111,0.000,0.000,0.000,19.603,18.871,2.111,0.702,0.071,-0.836,-0.04,-0.11,1,0
28574,0.131,-0.096,1.029,1.778,1.569,-0.697,0.9977,-0.0304,-0.0611,0.0024,-3.527,-6.990,180.494,0.215,-1.564,2.111,0.000,0.000,0.000,20.741,18.934,2.111,0.752,0.004,-0.863,-0.04,-0.11,1,0
28598,0.129,-0.095,1.025,3.062,1.896,1.436,0.9976,-0.0323,-0.0610,0.0027,-3.742,-6.977,180.534,0.215,-1.564,2.111,0.000,0.000,0.000,21.659,18.907,2.111,0.805,0.024,-0.893,-0.05,-0.15,1,0
28618,0.127,-0.094,1.025,3.867,1.610,2.998,0.9976,-0.0335,-0.0608,0.0032,-3.888,-6.958,180.600,0.215,-1.564,2.111,0.000,0.000,0.000,22.596,18.843,2.111,0.838,0.121,-0.911,-0.06,-0.57,1,0
28636,0.126,-0.091,1.023,3.040,1.205,4.605,0.9975,-0.0348,-0.0607,0.0039,-4.041,-6.939,180.693,0.215,-1.564,2.111,0.000,0.000,0.000,23.615,18.759,2.111,0.865,0.258,-0.925,-0.07,-0.55,1,0
28646,0.126,-0.088,1.023,2.749,1.298,5.722,0.9975,-0.0358,-0.0606,0.0045,-4.153,-6.930,180.773,0.215,-1.564,2.111,0.000,0.000,0.000,24.024,18.736,2.111,0.880,0.328,-0.934,-0.07,-0.55,1,0
28668,0.123,-0.084,1.023,3.326,1.561,7.236,0.9975,-0.0373,-0.0603,0.0058,-4.338,-6.885,180.930,0.215,-1.564,2.111,0.000,0.000,0.000,25.066,18.634,2.111,0.902,0.390,-0.946,-0.07,-0.46,1,0
28679,0.122,-0.081,1.022,3.812,1.733,7.856,0.9975,-0.0381,-0.0597,0.0067,-4.435,-6.815,181.036,0.215,-1.564,2.111,0.000,0.000,0.000,25.564,18.504,2.111,0.913,0.401,-0.952,-0.07,0.08,1,0
28692,0.120,-0.076,1.022,4.062,1.810,8.582,0.9976,-0.0371,-0.0585,0.0078,-4.321,-6.667,181.142,0.215,-1.564,2.111,0.000,0.000,0.000,25.279,17.802,2.111,0.925,0.396,-0.958,-0.07,0.07,1,0
28704,0.118,-0.074,1.021,4.347,1.745,9.010,0.9976,-0.0358,-0.0580,0.0085,-4.180,-6.612,181.217,0.215,-1.564,2.111,0.000,0.000,0.000,24.642,17.665,2.111,0.932,0.379,-0.962,-0.07,0.07,1,0
28718,0.116,-0.070,1.019,5.341,1.853,9.052,0.9978,-0.0338,-0.0569,0.0097,-3.959,-6.484,181.343,0.215,-1.564,2.111,0.000,0.000,0.000,23.901,17.378,2.111,0.902,0.361,-0.956,-0.07,0.11,1,0
28736,0.114,-0.063,1.019,6.379,1.998,8.575,0.9979,-0.0316,-0.0561,0.0109,-3.704,-6.387,181.463,0.215,-1.564,2.111,0.000,0.000,0.000,22.215,16.900,2.111,0.782,0.328,-0.872,-0.06,0.42,1,0
28743,0.114,-0.063,1.019,6.379,1.998,8.575,0.9979,-0.0316,-0.0561,0.0109,-3.704,-6.387,181.463,0.215,-1.564,2.111,0.000,0.000,0.000,22.215,16.900,2.111,0.751,0.320,-0.843,-0.06,0.42,1,0
28766,0.111,-0.050,1.018,3.822,2.236,6.676,0.9980,-0.0273,-0.0550,0.0129,-3.227,-6.260,181.653,0.215,-1.564,2.111,0.000,0.000,0.000,19.514,16.443,2.111,0.719,0.287,-0.558,-0.05,0.40,1,0
28780,0.110,-0.046,1.018,2.191,2.112,5.641,0.9981,-0.0259,-0.0546,0.0134,-3.064,-6.217,181.710,0.215,-1.564,2.111,0.000,0.000,0.000,18.719,16.314,2.111,0.746,0.294,-0.416,-0.04,0.38,1,0
28794,0.108,-0.041,1.016,0.658,1.915,4.048,0.9982,-0.0240,-0.0540,0.0141,-2.846,-6.144,181.771,0.215,-1.564,2.111,0.000,0.000,0.000,17.323,16.041,2.111,0.793,0.340,-0.157,-0.04,0.31,1,0
28812,0.106,-0.038,1.014,0.206,1.808,3.021,0.9982,-0.0226,-0.0535,0.0144,-2.687,-6.090,181.801,0.215,-1.564,2.111,0.000,0.000,0.000,16.680,15.904,2.111,0.820,0.370,-0.004,-0.04,0.31,1,0
28824,0.104,-0.036,1.014,0.176,1.784,2.264,0.9983,-0.0214,-0.0530,0.0147,-2.554,-6.035,181.817,0.215,-1.564,2.111,0.000,0.000,0.000,15.927,15.738,2.111,0.836,0.391,0.110,-0.04,-0.14,1,0
29203,0.144,-0.099,1.021,4.267,1.771,30.746,0.9967,-0.0354,-0.0617,0.0386,-4.357,-6.907,184.700,0.215,-1.564,2.111,0.000,0.000,0.000,25.117,18.531,2.111,0.749,0.743,-0.793,-0.11,-0.04,1,0
29229,0.139,-0.097,1.022,8.233,3.577,33.468,0.9962,-0.0366,-0.0627,0.0477,-4.560,-6.979,185.763,0.215,-1.564,2.111,0.000,0.000,0.000,26.393,18.852,2.111,0.806,0.525,-0.850,-0.11,-0.04,1,0
29245,0.138,-0.092,1.021,10.646,4.155,34.507,0.9959,-0.0366,-0.0631,0.0525,-4.600,-7.004,186.321,0.215,-1.564,2.111,0.000,0.000,0.000,26.801,18.954,2.111,0.754,0.463,-0.872,-0.11,-0.03,1,0
29267,0.136,-0.083,1.020,12.037,5.419,34.918,0.9956,-0.0359,-0.0637,0.0587,-4.563,-7.045,187.025,0.215,-1.564,2.111,0.000,0.000,0.000,26.739,19.081,2.111,0.676,0.357,-0.896,-0.11,0.05,1,0
29284,0.133,-0.073,1.020,10.672,5.952,34.899,0.9953,-0.0338,-0.0641,0.0641,-4.340,-7.080,187.708,0.215,-1.564,2.111,0.000,0.000,0.000,25.691,19.246,2.111,0.723,0.290,-0.915,-0.11,0.05,1,0
29308,0.129,-0.060,1.018,6.780,5.667,33.872,0.9950,-0.0301,-0.0633,0.0718,-3.982,-6.991,188.493,0.215,-1.564,2.111,0.000,0.000,0.000,24.023,19.069,2.111,0.783,0.323,-0.933,-0.11,0.04,1,0
29326,0.127,-0.054,1.018,3.338,4.979,33.664,0.9947,-0.0279,-0.0627,0.0769,-3.768,-6.913,189.073,0.215,-1.564,2.111,0.000,0.000,0.000,22.554,18.749,2.111,0.819,0.414,-0.944,-0.11,0.03,1,0
29340,0.126,-0.052,1.018,1.072,4.649,33.784,0.9945,-0.0268,-0.0623,0.0804,-3.658,-6.866,189.460,0.215,-1.564,2.111,0.000,0.000,0.000,21.972,18.607,2.111,0.839,0.478,-0.951,-0.11,-0.05,1,0
29358,0.122,-0.050,1.018,-0.863,4.364,34.860,0.9941,-0.0253,-0.0615,0.0862,-3.518,-6.772,190.117,0.215,-1.564,2.111,0.000,0.000,0.000,21.019,18.286,2.111,0.869,0.552,-0.960,-0.11,-0.05,1,0
29376,0.115,-0.050,1.017,-0.500,4.407,36.219,0.9937,-0.0241,-0.0603,0.0916,-3.401,-6.631,190.732,0.215,-1.564,2.111,0.000,0.000,0.000,20.359,17.886,2.111,0.891,0.565,-0.966,-0.11,-0.08,1,0
29400,0.109,-0.050,1.019,-3.172,3.781,38.239,0.9931,-0.0229,-0.0581,0.0993,-3.288,-6.359,191.599,0.215,-1.564,2.111,0.000,0.000,0.000,19.709,17.146,2.111,0.914,0.541,-0.974,-0.12,-0.30,1,0
29418,0.111,-0.054,1.019,-7.120,2.879,39.276,0.9926,-0.0226,-0.0569,0.1045,-3.270,-6.212,192.201,0.215,-1.564,2.111,0.000,0.000,0.000,19.435,16.306,2.111,0.927,0.571,-0.978,-0.13,-0.29,1,0
29436,0.114,-0.059,1.018,-10.682,2.453,40.778,0.9919,-0.0231,-0.0575,0.1106,-3.382,-6.256,192.907,0.215,-1.564,2.111,0.000,0.000,0.000,19.771,16.288,2.111,0.940,0.636,-0.982,-0.13,-0.25,1,0
29454,0.110,-0.069,1.018,-8.267,2.803,43.502,0.9910,-0.0267,-0.0576,0.1178,-3.840,-6.195,193.769,0.215,-1.564,2.111,0.000,0.000,0.000,22.101,16.333,2.111,0.950,0.669,-0.985,-0.13,-0.00,1,0
29469,0.105,-0.074,1.018,-3.174,3.236,45.674,0.9904,-0.0285,-0.0564,0.1225,-4.051,-6.017,194.315,0.215,-1.564,2.111,0.000,0.000,0.000,23.251,15.861,2.111,0.955,0.620,-0.986,-0.13,-0.00,1,0
29485,0.098,-0.077,1.019,5.510,4.488,48.838,0.9896,-0.0298,-0.0541,0.1300,-4.207,-5.706,195.177,0.215,-1.564,2.111,0.000,0.000,0.000,24.547,14.705,2.111,0.727,0.417,-0.989,-0.13,-0.00,1,0
29504,0.092,-0.075,1.019,13.249,6.570,51.501,0.9887,-0.0294,-0.0512,0.1380,-4.164,-5.340,196.083,0.215,-1.564,2.111,0.000,0.000,0.000,24.511,13.324,2.111,0.440,0.182,-0.991,-0.13,-0.00,1,0
29520,0.088,-0.065,1.021,18.796,7.782,52.973,0.9877,-0.0267,-0.0479,0.1462,-3.839,-4.984,197.010,0.215,-1.564,2.111,0.000,0.000,0.000,23.833,12.568,2.111,0.200,-0.015,-0.992,-0.13,0.00,1,0
29536,0.085,-0.053,1.021,19.983,8.852,52.709,0.9868,-0.0230,-0.0456,0.1536,-3.416,-4.753,197.835,0.215,-1.564,2.111,0.000,0.000,0.000,20.856,11.309,2.111,0.021,-0.162,-0.993,-0.13,0.00,1,0
29559,0.085,-0.034,1.018,17.045,9.695,50.285,0.9855,-0.0180,-0.0430,0.1634,-2.849,-4.527,198.942,0.215,-1.564,2.111,0.000,0.000,0.000,18.172,10.599,2.111,-0.143,-0.329,-0.995,-0.13,0.00,1,0
29576,0.082,-0.021,1.015,14.597,9.818,47.059,0.9845,-0.0148,-0.0413,0.1701,-2.479,-4.373,199.697,0.215,-1.564,2.111,0.000,0.000,0.000,15.526,9.938,2.111,-0.115,-0.420,-0.880,-0.13,-0.03,1,0
29596,0.075,-0.003,1.010,10.061,9.263,42.500,0.9831,-0.0109,-0.0388,0.1785,-2.031,-4.149,200.653,0.215,-1.564,2.111,0.000,0.000,0.000,12.947,9.166,2.111,0.047,-0.446,-0.536,-0.14,-0.35,1,0
29615,0.067,0.011,1.007,8.163,8.208,37.998,0.9820,-0.0080,-0.0365,0.1853,-1.684,-3.944,201.433,0.215,-1.564,2.111,0.000,0.000,0.000,11.164,8.518,2.111,0.196,-0.372,-0.281,-0.15,-0.33,1,0
30038,0.028,0.071,1.010,1.405,-3.537,-8.852,0.9709,0.0261,-0.0134,0.2378,2.545,-2.200,207.473,0.215,-1.564,2.111,0.000,0.000,0.000,-12.783,2.233,2.111,-0.357,0.378,0.726,-0.03,-0.20,1,0
30077,0.036,0.071,1.014,-16.896,-3.621,-17.725,0.9720,0.0273,-0.0132,0.2329,2.691,-2.202,206.892,0.215,-1.564,2.111,0.000,0.000,0.000,-13.920,2.210,2.111,0.048,0.346,0.817,-0.04,-0.18,1,0
30086,0.037,0.069,1.014,-18.427,-3.712,-18.257,0.9722,0.0271,-0.0133,0.2322,2.667,-2.208,206.817,0.215,-1.564,2.111,0.000,0.000,0.000,-13.920,2.210,2.111,0.085,0.357,0.825,-0.04,-0.18,1,0
30108,0.036,0.049,1.012,-22.617,-5.979,-19.928,0.9734,0.0248,-0.0143,0.2274,2.392,-2.239,206.252,0.215,-1.564,2.111,0.000,0.000,0.000,-12.655,2.348,2.111,0.311,0.508,0.868,-0.04,-0.13,1,0
30119,0.034,0.040,1.011,-20.626,-6.467,-19.019,0.9739,0.0231,-0.0143,0.2253,2.215,-2.197,206.012,0.215,-1.564,2.111,0.000,0.000,0.000,-12.012,2.348,2.111,0.377,0.555,0.881,-0.03,0.30,1,0
30138,0.034,0.027,1.013,-14.704,-6.098,-16.862,0.9746,0.0194,-0.0148,0.2226,1.796,-2.146,205.692,0.215,-1.564,2.111,0.000,0.000,0.000,-9.632,2.047,2.111,0.375,0.608,0.777,-0.03,0.28,1,0
30157,0.037,0.014,1.017,-10.153,-5.133,-14.545,0.9752,0.0161,-0.0158,0.2202,1.399,-2.173,205.417,0.215,-1.564,2.111,0.000,0.000,0.000,-7.318,2.065,2.111,0.197,0.520,0.515,-0.02,0.26,1,0
30174,0.042,0.002,1.020,-8.566,-4.230,-12.507,0.9757,0.0131,-0.0172,0.2181,1.036,-2.253,205.183,0.215,-1.564,2.111,0.000,0.000,0.000,-5.021,2.329,2.111,0.149,0.403,0.263,-0.02,0.13,1,0
30194,0.048,-0.007,1.019,-7.833,-3.000,-11.275,0.9760,0.0110,-0.0185,0.2167,0.774,-2.338,205.022,0.215,-1.564,2.111,0.000,0.000,0.000,-3.945,2.528,2.111,0.222,0.301,0.097,-0.02,0.13,1,0
30205,0.054,-0.017,1.020,-6.857,-1.293,-9.535,0.9763,0.0088,-0.0198,0.2153,0.492,-2.434,204.864,0.215,-1.564,2.111,0.000,0.000,0.000,-1.926,2.959,2.111,0.327,0.146,-0.065,-0.02,0.13,1,0
30222,0.057,-0.028,1.020,-3.431,0.490,-8.144,0.9766,0.0068,-0.0209,0.2141,0.243,-2.505,204.732,0.215,-1.564,2.111,0.000,0.000,0.000,-0.989,3.145,2.111,0.347,-0.024,-0.204,-0.02,0.06,1,0
30243,0.057,-0.037,1.020,3.962,1.611,-6.051,0.9768,0.0051,-0.0217,0.2130,0.041,-2.554,204.601,0.215,-1.564,2.111,0.000,0.000,0.000,0.511,3.388,2.111,0.151,-0.176,-0.337,-0.03,-0.44,1,0
30264,0.058,-0.036,1.021,12.550,2.752,-5.092,0.9770,0.0048,-0.0220,0.2120,0.006,-2.578,204.484,0.215,-1.564,2.111,0.000,0.000,0.000,1.204,3.526,2.111,-0.115,-0.291,-0.463,-0.04,-0.42,1,0
30287,0.063,-0.028,1.021,12.201,3.787,-5.837,0.9772,0.0054,-0.0221,0.2111,0.065,-2.609,204.377,0.215,-1.564,2.111,0.000,0.000,0.000,0.928,3.606,2.111,-0.291,-0.355,-0.357,-0.03,-0.31,1,0
30300,0.065,-0.021,1.020,9.959,4.403,-7.475,0.9773,0.0056,-0.0224,0.2103,0.092,-2.643,204.290,0.215,-1.564,2.111,0.000,0.000,0.000,0.781,3.680,2.111,-0.297,-0.384,-0.187,-0.03,0.52,1,0
30320,0.064,-0.013,1.020,7.571,4.446,-10.501,0.9776,0.0058,-0.0229,0.2090,0.101,-2.702,204.132,0.215,-1.564,2.111,0.000,0.000,0.000,0.644,3.894,2.111,-0.136,-0.360,0.011,-0.02,0.49,1,0
30339,0.063,-0.006,1.015,6.924,3.658,-14.088,0.9780,0.0060,-0.0237,0.2069,0.113,-2.801,203.890,0.215,-1.564,2.111,0.000,0.000,0.000,0.618,4.161,2.111,0.004,-0.198,0.192,-0.01,0.47,1,0
30364,0.057,0.007,1.010,7.350,3.148,-18.294,0.9788,0.0078,-0.0251,0.2033,0.287,-2.995,203.464,0.215,-1.564,2.111,0.000,0.000,0.000,-0.106,4.897,2.111,0.017,0.059,0.378,-0.00,0.40,1,0
30378,0.051,0.015,1.010,9.636,2.667,-20.417,0.9792,0.0101,-0.0244,0.2010,0.566,-2.972,203.183,0.215,-1.564,2.111,0.000,0.000,0.000,-1.245,5.033,2.111,-0.099,0.180,0.460,-0.00,0.00,1,0
30398,0.040,0.029,1.011,13.743,1.762,-22.902,0.9799,0.0132,-0.0224,0.1976,0.976,-2.819,202.781,0.215,-1.564,2.111,0.000,0.000,0.000,-3.457,4.573,2.111,-0.249,0.308,0.550,-0.00,0.00,1,0
30415,0.035,0.046,1.012,15.164,0.467,-25.793,0.9807,0.0168,-0.0205,0.1939,1.435,-2.674,202.334,0.215,-1.564,2.111,0.000,0.000,0.000,-6.224,3.973,2.111,-0.374,0.418,0.625,-0.00,0.05,1,0
30429,0.035,0.058,1.011,11.075,-0.241,-29.100,0.9813,0.0195,-0.0192,0.1906,1.780,-2.592,201.940,0.215,-1.564,2.111,0.000,0.000,0.000,-7.665,3.739,2.111,-0.457,0.487,0.674,0.01,0.05,1,0
30448,0.038,0.068,1.006,1.630,-1.089,-34.722,0.9822,0.0222,-0.0182,0.1856,2.112,-2.526,201.352,0.215,-1.564,2.111,0.000,0.000,0.000,-10.073,3.417,2.111,-0.318,0.558,0.728,0.01,0.49,1,0
30468,0.038,0.071,0.998,-7.864,-3.377,-42.054,0.9835,0.0237,-0.0179,0.1782,2.306,-2.501,200.485,0.215,-1.564,2.111,0.000,0.000,0.000,-11.399,3.284,2.111,-0.056,0.646,0.783,0.02,0.47,1,0
30876,0.126,-0.058,1.015,-12.029,-5.321,-37.399,0.9981,-0.0209,-0.0565,0.0127,-2.488,-6.445,181.597,0.215,-1.564,2.111,0.000,0.000,0.000,14.697,16.844,2.111,0.355,0.964,0.498,0.03,-0.08,1,0
30915,0.133,-0.078,1.007,-21.795,-5.081,-39.527,0.9977,-0.0294,-0.0608,-0.0004,-3.385,-6.972,180.156,0.215,-1.564,2.111,0.000,0.000,0.000,19.756,18.784,2.111,0.561,0.966,0.658,0.03,0.12,1,0
30935,0.130,-0.091,1.005,-17.046,-6.346,-37.717,0.9974,-0.0343,-0.0625,-0.0073,-3.904,-7.195,179.411,0.215,-1.564,2.111,0.000,0.000,0.000,22.413,19.505,2.111,0.641,0.972,0.720,0.03,0.07,1,0
30954,0.128,-0.097,1.004,-11.899,-7.176,-35.020,0.9972,-0.0372,-0.0635,-0.0117,-4.199,-7.331,178.928,0.215,-1.564,2.111,0.000,0.000,0.000,23.700,19.856,2.111,0.688,0.976,0.654,0.03,0.07,1,0
30972,0.130,-0.105,1.004,-4.915,-7.941,-29.613,0.9969,-0.0408,-0.0651,-0.0182,-4.565,-7.545,178.205,0.215,-1.564,2.111,0.000,0.000,0.000,26.624,20.866,2.111,0.729,0.981,0.315,0.02,-0.30,1,0
30988,0.130,-0.106,1.004,-3.662,-7.911,-27.986,0.9968,-0.0417,-0.0656,-0.0202,-4.660,-7.613,177.992,0.215,-1.564,2.111,0.000,0.000,0.000,26.624,20.866,2.111,0.750,0.983,0.213,0.02,-0.30,1,0
31007,0.133,-0.107,1.007,-1.246,-8.063,-24.329,0.9965,-0.0440,-0.0668,-0.0249,-4.879,-7.781,177.469,0.215,-1.564,2.111,0.000,0.000,0.000,28.268,21.637,2.111,0.797,0.986,-0.029,0.01,-0.28,1,0
31020,0.139,-0.106,1.007,-3.460,-7.471,-22.494,0.9962,-0.0458,-0.0679,-0.0284,-5.068,-7.925,177.089,0.215,-1.564,2.111,0.000,0.000,0.000,28.799,21.902,2.111,0.831,0.988,-0.190,0.01,-0.22,1,0
31037,0.145,-0.108,1.008,-6.474,-6.455,-21.665,0.9960,-0.0477,-0.0689,-0.0310,-5.259,-8.057,176.811,0.215,-1.564,2.111,0.000,0.000,0.000,30.317,22.580,2.111,0.853,0.989,-0.250,0.00,-0.21,1,0
31048,0.149,-0.112,1.010,-7.914,-5.811,-21.171,0.9957,-0.0498,-0.0699,-0.0335,-5.482,-8.195,176.541,0.215,-1.564,2.111,0.000,0.000,0.000,31.003,22.850,2.111,0.873,0.989,-0.231,0.00,-0.21,1,0
31068,0.152,-0.117,1.011,-5.649,-5.155,-19.695,0.9954,-0.0528,-0.0713,-0.0370,-5.788,-8.388,176.170,0.215,-1.564,2.111,0.000,0.000,0.000,32.771,23.542,2.111,0.896,0.991,-0.174,0.01,-0.13,1,0
31098,0.155,-0.121,1.014,-0.045,-3.686,-16.073,0.9950,-0.0556,-0.0727,-0.0408,-6.084,-8.585,175.762,0.215,-1.564,2.111,0.000,0.000,0.000,34.965,24.439,2.111,0.920,0.978,-0.324,0.02,0.47,1,0
31114,0.157,-0.120,1.016,1.662,-3.284,-14.050,0.9948,-0.0568,-0.0733,-0.0425,-6.199,-8.669,175.581,0.215,-1.564,2.111,0.000,0.000,0.000,35.354,24.607,2.111,0.931,0.970,-0.413,0.03,0.45,1,0
31128,0.162,-0.117,1.017,0.874,-2.493,-11.242,0.9945,-0.0582,-0.0747,-0.0445,-6.337,-8.843,175.368,0.215,-1.564,2.111,0.000,0.000,0.000,36.187,25.089,2.111,0.943,0.975,-0.520,0.04,0.45,1,0
31147,0.167,-0.117,1.019,-1.633,-1.046,-9.238,0.9942,-0.0592,-0.0764,-0.0461,-6.434,-9.060,175.207,0.215,-1.564,2.111,0.000,0.000,0.000,36.827,25.881,2.111,0.953,0.951,-0.600,0.04,0.38,1,0
31158,0.169,-0.119,1.019,-2.222,-0.694,-8.303,0.9941,-0.0599,-0.0774,-0.0468,-6.502,-9.173,175.130,0.215,-1.564,2.111,0.000,0.000,0.000,37.215,26.379,2.111,0.957,0.944,-0.638,0.04,-0.06,1,0
31167,0.170,-0.121,1.019,-2.059,-0.530,-7.642,0.9940,-0.0607,-0.0781,-0.0475,-6.591,-9.268,175.064,0.215,-1.564,2.111,0.000,0.000,0.000,37.568,26.667,2.111,0.961,0.950,-0.673,0.04,-0.06,1,0
31198,0.172,-0.124,1.018,-0.388,-0.141,-5.395,0.9936,-0.0632,-0.0796,-0.0490,-6.863,-9.465,174.926,0.215,-1.564,2.111,0.000,0.000,0.000,39.170,27.456,2.111,0.971,0.962,-0.752,0.04,0.00,1,0
31214,0.174,-0.127,1.015,1.229,0.522,-3.349,0.9934,-0.0649,-0.0805,-0.0496,-7.043,-9.572,174.872,0.215,-1.564,2.111,0.000,0.000,0.000,40.291,27.871,2.111,0.976,0.969,-0.797,0.05,0.54,1,0
31238,0.175,-0.128,1.016,2.809,1.032,-0.280,0.9932,-0.0663,-0.0816,-0.0499,-7.202,-9.714,174.866,0.215,-1.564,2.111,0.000,0.000,0.000,40.997,28.240,2.111,0.981,0.976,-0.841,0.06,0.52,1,0
31254,0.176,-0.129,1.015,2.431,1.492,1.689,0.9932,-0.0665,-0.0819,-0.0497,-7.229,-9.751,174.888,0.215,-1.564,2.111,0.000,0.000,0.000,41.232,28.489,2.111,0.984,0.979,-0.865,0.07,0.49,1,0
31268,0.176,-0.130,1.014,1.804,1.771,3.019,0.9931,-0.0671,-0.0820,-0.0494,-7.292,-9.762,174.930,0.215,-1.564,2.111,0.000,0.000,0.000,41.470,28.514,2.111,0.986,0.982,-0.880,0.07,0.49,1,0
31303,0.178,-0.135,1.010,1.865,1.442,6.516,0.9930,-0.0696,-0.0830,-0.0478,-7.598,-9.877,175.144,0.215,-1.564,2.111,0.000,0.000,0.000,42.936,28.876,2.111,0.990,0.987,-0.915,0.09,0.40,1,0
31740,0.097,-0.029,1.023,1.114,10.580,17.765,0.9982,-0.0215,-0.0477,0.0288,-2.634,-5.392,183.435,0.215,-1.564,2.111,0.000,0.000,0.000,16.485,13.754,2.111,0.542,-0.324,-0.550,0.12,-0.12,1,0
31779,0.092,-0.022,1.020,0.528,11.383,12.420,0.9983,-0.0179,-0.0440,0.0336,-2.224,-4.970,183.956,0.215,-1.564,2.111,0.000,0.000,0.000,14.083,12.177,2.111,0.688,-0.455,-0.072,0.11,-0.14,1,0
31800,0.091,-0.019,1.019,2.223,12.495,9.141,0.9984,-0.0156,-0.0421,0.0355,-1.965,-4.759,184.158,0.215,-1.564,2.111,0.000,0.000,0.000,12.842,11.482,2.111,0.663,-0.543,0.141,0.10,-0.42,1,0
31820,0.089,-0.015,1.018,1.997,13.500,7.244,0.9984,-0.0137,-0.0406,0.0367,-1.743,-4.590,184.280,0.215,-1.564,2.111,0.000,0.000,0.000,11.324,10.757,2.111,0.595,-0.619,0.284,0.09,-0.40,1,0
31839,0.084,-0.014,1.018,0.289,14.201,5.471,0.9985,-0.0118,-0.0388,0.0377,-1.517,-4.395,184.381,0.215,-1.564,2.111,0.000,0.000,0.000,10.139,10.158,2.111,0.635,-0.689,0.415,0.09,-0.35,1,0
31856,0.082,-0.016,1.016,-0.975,14.058,4.453,0.9985,-0.0105,-0.0375,0.0383,-1.368,-4.252,184.441,0.215,-1.564,2.111,0.000,0.000,0.000,9.015,9.490,2.111,0.689,-0.715,0.502,0.09,-0.01,1,0
31874,0.080,-0.019,1.013,-2.454,13.680,3.830,0.9985,-0.0097,-0.0366,0.0389,-1.279,-4.154,184.505,0.215,-1.564,2.111,0.000,0.000,0.000,8.334,9.058,2.111,0.746,-0.663,0.578,0.09,-0.01,1,0
31886,0.079,-0.025,1.010,-2.922,13.120,3.896,0.9985,-0.0101,-0.0365,0.0392,-1.320,-4.131,184.541,0.215,-1.564,2.111,0.000,0.000,0.000,8.417,8.994,2.111,0.770,-0.595,0.566,0.09,-0.01,1,0
31908,0.071,-0.034,1.004,-2.337,11.311,4.732,0.9985,-0.0126,-0.0353,0.0401,-1.612,-3.982,184.651,0.215,-1.564,2.111,0.000,0.000,0.000,9.573,8.684,2.111,0.820,-0.307,0.421,0.09,-0.01,1,0
31932,0.063,-0.040,0.999,0.532,10.268,6.559,0.9985,-0.0147,-0.0334,0.0410,-1.838,-3.755,184.761,0.215,-1.564,2.111,0.000,0.000,0.000,11.077,7.938,2.111,0.843,-0.113,0.198,0.10,0.05,1,0
31948,0.055,-0.045,0.997,5.600,8.397,8.949,0.9985,-0.0161,-0.0309,0.0424,-1.991,-3.465,184.927,0.215,-1.564,2.111,0.000,0.000,0.000,12.124,6.937,2.111,0.692,0.044,-0.021,0.11,0.61,1,0
31968,0.049,-0.041,0.995,7.718,5.716,10.484,0.9985,-0.0166,-0.0283,0.0444,-2.046,-3.158,185.151,0.215,-1.564,2.111,0.000,0.000,0.000,12.564,5.961,2.111,0.457,0.235,-0.216,0.12,0.58,1,0
31986,0.047,-0.037,0.994,5.474,3.954,10.626,0.9984,-0.0167,-0.0261,0.0462,-2.052,-2.897,185.347,0.215,-1.564,2.111,0.000,0.000,0.000,12.648,4.959,2.111,0.511,0.362,-0.346,0.12,0.46,1,0
32004,0.044,-0.033,0.994,2.841,2.894,9.967,0.9984,-0.0158,-0.0239,0.0478,-1.936,-2.647,185.528,0.215,-1.564,2.111,0.000,0.000,0.000,12.195,3.960,2.111,0.592,0.453,-0.374,0.11,-0.43,1,0
32027,0.044,-0.030,0.993,2.700,2.150,8.900,0.9984,-0.0138,-0.0225,0.0498,-1.711,-2.498,185.744,0.215,-1.564,2.111,0.000,0.000,0.000,11.126,3.496,2.111,0.674,0.477,-0.279,0.10,-0.41,1,0
32047,0.041,-0.027,0.996,3.701,1.761,7.702,0.9984,-0.0123,-0.0210,0.0511,-1.530,-2.332,185.886,0.215,-1.564,2.111,0.000,0.000,0.000,10.132,2.818,2.111,0.669,0.466,-0.136,0.10,-0.36,1,0
32066,0.037,-0.021,0.997,4.362,1.830,6.315,0.9984,-0.0103,-0.0193,0.0523,-1.295,-2.145,186.017,0.215,-1.564,2.111,0.000,0.000,0.000,8.929,2.144,2.111,0.569,0.385,0.042,0.10,-0.08,1,0
32080,0.036,-0.017,0.995,4.671,2.117,5.708,0.9984,-0.0087,-0.0187,0.0529,-1.108,-2.093,186.083,0.215,-1.564,2.111,0.000,0.000,0.000,8.087,1.969,2.111,0.493,0.302,0.136,0.09,-0.07,1,0
32095,0.035,-0.014,0.997,5.343,2.109,4.896,0.9984,-0.0065,-0.0180,0.0536,-0.854,-2.017,186.160,0.215,-1.564,2.111,0.000,0.000,0.000,6.321,1.667,2.111,0.373,0.217,0.235,0.09,-0.09,1,0
32118,0.030,-0.009,0.999,6.429,1.327,3.595,0.9984,-0.0041,-0.0158,0.0544,-0.562,-1.787,186.246,0.215,-1.564,2.111,0.000,0.000,0.000,4.622,0.925,2.111,0.116,0.188,0.372,0.09,-0.27,1,0
32138,0.027,-0.006,1.000,4.910,0.696,2.626,0.9984,-0.0024,-0.0138,0.0549,-0.357,-1.560,186.305,0.215,-1.564,2.111,0.000,0.000,0.000,3.433,0.244,2.111,0.071,0.187,0.457,0.08,-0.26,1,0
32154,0.025,-0.007,1.000,3.665,0.295,1.830,0.9984,-0.0027,-0.0130,0.0553,-0.392,-1.465,186.347,0.215,-1.564,2.111,0.000,0.000,0.000,3.237,-0.274,2.111,0.154,0.178,0.519,0.08,-0.25,1,0
32168,0.024,-0.008,1.001,4.008,0.086,1.577,0.9984,-0.0031,-0.0125,0.0554,-0.433,-1.409,186.362,0.215,-1.564,2.111,0.000,0.000,0.000,3.551,-0.500,2.111,0.205,0.187,0.547,0.07,-0.25,1,0
32184,0.022,-0.011,1.001,5.986,-1.503,1.567,0.9984,-0.0040,-0.0115,0.0558,-0.533,-1.288,186.400,0.215,-1.564,2.111,0.000,0.000,0.000,4.112,-0.879,2.111,0.198,0.272,0.525,0.08,-0.19,1,0
32616,0.004,0.074,1.007,9.714,2.641,6.483,0.9957,0.0335,-0.0021,0.0868,3.808,-0.572,189.947,0.215,-1.564,2.111,0.000,0.000,0.000,-19.466,-3.266,2.111,-0.544,-0.009,-0.047,0.10,0.22,1,0
32646,0.002,0.084,1.003,3.374,0.871,4.142,0.9954,0.0375,0.0001,0.0881,4.282,-0.364,190.102,0.215,-1.564,2.111,0.000,0.000,0.000,-22.248,-4.069,2.111,-0.491,0.169,0.210,0.11,0.30,1,0
32660,0.001,0.086,1.001,3.481,0.639,3.255,0.9953,0.0388,0.0008,0.0885,4.444,-0.297,190.146,0.215,-1.564,2.111,0.000,0.000,0.000,-23.165,-4.300,2.111,-0.520,0.203,0.300,0.11,0.28,1,0
32680,-0.001,0.089,1.000,6.173,-0.570,1.855,0.9952,0.0416,0.0022,0.0889,4.771,-0.174,190.200,0.215,-1.564,2.111,0.000,0.000,0.000,-24.576,-4.661,2.111,-0.616,0.264,0.440,0.11,0.27,1,0
32706,0.000,0.098,1.002,3.356,-2.040,-0.749,0.9950,0.0449,0.0031,0.0889,5.153,-0.102,190.209,0.215,-1.564,2.111,0.000,0.000,0.000,-27.243,-5.094,2.111,-0.699,0.386,0.560,0.11,0.20,1,0
32720,0.002,0.102,1.003,-1.094,-2.354,-2.098,0.9950,0.0464,0.0030,0.0887,5.324,-0.125,190.184,0.215,-1.564,2.111,0.000,0.000,0.000,-28.164,-5.063,2.111,-0.685,0.439,0.618,0.11,-0.32,1,0
32747,0.005,0.100,1.004,-5.050,-2.101,-3.492,0.9950,0.0480,0.0021,0.0880,5.505,-0.240,190.101,0.215,-1.564,2.111,0.000,0.000,0.000,-29.410,-4.683,2.111,-0.472,0.437,0.707,0.10,-0.30,1,0
32755,0.004,0.097,1.005,-3.585,-2.198,-3.737,0.9950,0.0480,0.0021,0.0877,5.499,-0.246,190.063,0.215,-1.564,2.111,0.000,0.000,0.000,-29.744,-4.494,2.111,-0.515,0.427,0.735,0.10,-0.27,1,0
32766,0.004,0.093,1.006,-1.527,-2.180,-3.974,0.9951,0.0466,0.0021,0.0873,5.343,-0.221,190.014,0.215,-1.564,2.111,0.000,0.000,0.000,-29.065,-4.659,2.111,-0.570,0.421,0.761,0.10,-0.27,1,0
32784,0.005,0.090,1.006,-0.415,-1.652,-3.841,0.9952,0.0448,0.0013,0.0867,5.130,-0.293,189.942,0.215,-1.564,2.111,0.000,0.000,0.000,-27.707,-4.488,2.111,-0.642,0.348,0.735,0.09,-0.10,1,0
32807,0.008,0.087,1.010,-0.917,-1.987,-3.764,0.9954,0.0432,-0.0004,0.0860,4.927,-0.475,189.856,0.215,-1.564,2.111,0.000,0.000,0.000,-26.590,-4.007,2.111,-0.705,0.334,0.661,0.09,-0.09,1,0
32820,0.011,0.086,1.011,-2.235,-2.163,-3.541,0.9954,0.0425,-0.0018,0.0856,4.835,-0.621,189.803,0.215,-1.564,2.111,0.000,0.000,0.000,-26.221,-3.623,2.111,-0.683,0.396,0.599,0.08,-0.15,1,0
32829,0.011,0.085,1.011,-2.448,-2.146,-3.495,0.9954,0.0424,-0.0020,0.0855,4.767,-0.710,189.775,0.215,-1.564,2.111,0.000,0.000,0.000,-25.800,-3.290,2.111,-0.650,0.424,0.568,0.08,-0.15,1,0
32845,0.016,0.081,1.012,-4.576,-1.916,-3.103,0.9955,0.0406,-0.0043,0.0850,4.600,-0.887,189.723,0.215,-1.564,2.111,0.000,0.000,0.000,-24.751,-2.507,2.111,-0.507,0.488,0.477,0.07,-0.66,1,0
32862,0.017,0.078,1.012,-5.379,-1.694,-2.726,0.9956,0.0391,-0.0050,0.0847,4.415,-0.947,189.689,0.215,-1.564,2.111,0.000,0.000,0.000,-24.006,-2.201,2.111,-0.406,0.510,0.411,0.06,-0.63,1,0
32876,0.017,0.075,1.013,-5.866,-1.518,-2.399,0.9957,0.0373,-0.0053,0.0844,4.215,-0.965,189.659,0.215,-1.564,2.111,0.000,0.000,0.000,-23.073,-2.131,2.111,-0.321,0.510,0.353,0.05,-0.63,1,0
32886,0.017,0.071,1.015,-4.957,-1.417,-1.809,0.9958,0.0353,-0.0054,0.0841,3.976,-0.954,189.622,0.215,-1.564,2.111,0.000,0.000,0.000,-21.491,-2.026,2.111,-0.238,0.474,0.240,0.05,-0.56,1,0
32916,0.017,0.065,1.015,-2.731,-1.659,-0.121,0.9959,0.0327,-0.0059,0.0839,3.681,-0.987,189.595,0.215,-1.564,2.111,0.000,0.000,0.000,-19.763,-1.913,2.111,-0.338,0.437,0.011,0.04,-0.21,1,0
32928,0.018,0.065,1.013,-1.548,-2.061,0.326,0.9959,0.0326,-0.0063,0.0839,3.661,-1.028,189.596,0.215,-1.564,2.111,0.000,0.000,0.000,-19.140,-1.887,2.111,-0.402,0.457,-0.063,0.04,-0.21,1,0
32946,0.019,0.064,1.011,-0.361,-1.935,0.950,0.9959,0.0321,-0.0069,0.0840,3.602,-1.101,189.607,0.215,-1.564,2.111,0.000,0.000,0.000,-19.098,-1.706,2.111,-0.501,0.478,-0.167,0.04,-0.20,1,0
32964,0.020,0.063,1.012,-0.216,-1.002,0.958,0.9959,0.0319,-0.0071,0.0842,3.574,-1.121,189.625,0.215,-1.564,2.111,0.000,0.000,0.000,-18.772,-1.558,2.111,-0.592,0.404,-0.201,0.04,-0.18,1,0
32979,0.019,0.064,1.014,-0.086,-0.875,0.872,0.9959,0.0321,-0.0066,0.0842,3.604,-1.059,189.636,0.215,-1.564,2.111,0.000,0.000,0.000,-18.802,-1.606,2.111,-0.646,0.327,-0.182,0.03,-0.14,1,0
32994,0.018,0.064,1.015,-0.756,-0.947,0.969,0.9959,0.0322,-0.0060,0.0843,3.626,-0.992,189.644,0.215,-1.564,2.111,0.000,0.000,0.000,-18.986,-1.824,2.111,-0.673,0.289,-0.166,0.03,-0.14,1,0
33014,0.016,0.066,1.014,-2.063,-0.911,2.012,0.9959,0.0329,-0.0052,0.0846,3.707,-0.914,189.679,0.215,-1.564,2.111,0.000,0.000,0.000,-19.647,-2.270,2.111,-0.665,0.193,-0.206,0.03,-0.06,1,0
33486,0.017,0.066,1.008,4.078,-1.016,2.884,0.9952,0.0315,-0.0065,0.0923,3.529,-1.079,190.565,0.215,-1.564,2.111,0.000,0.000,0.000,-18.016,-1.613,2.111,-0.726,0.180,-0.151,0.04,-0.33,1,0
33527,0.018,0.074,1.003,-0.546,-3.415,0.146,0.9950,0.0360,-0.0060,0.0928,4.046,-1.061,190.617,0.215,-1.564,2.111,0.000,0.000,0.000,-20.935,-1.822,2.111,-0.808,0.415,0.164,0.03,-0.13,1,0
33546,0.020,0.077,1.003,-2.659,-4.700,-0.888,0.9950,0.0376,-0.0063,0.0927,4.222,-1.117,190.599,0.215,-1.564,2.111,0.000,0.000,0.000,-22.068,-1.659,2.111,-0.823,0.512,0.303,0.03,-0.10,1,0
33564,0.022,0.078,1.004,-4.112,-5.661,-1.264,0.9949,0.0384,-0.0070,0.0925,4.314,-1.200,190.578,0.215,-1.564,2.111,0.000,0.000,0.000,-22.559,-1.488,2.111,-0.802,0.568,0.382,0.04,0.05,1,0
33588,0.026,0.080,1.007,-7.058,-6.278,-1.827,0.9949,0.0401,-0.0091,0.0920,4.479,-1.457,190.508,0.215,-1.564,2.111,0.000,0.000,0.000,-23.623,-0.642,2.111,-0.742,0.681,0.481,0.04,0.05,1,0
33606,0.027,0.079,1.010,-9.595,-6.852,-2.033,0.9949,0.0397,-0.0100,0.0916,4.428,-1.559,190.462,0.215,-1.564,2.111,0.000,0.000,0.000,-23.994,-0.163,2.111,-0.631,0.734,0.481,0.03,0.01,1,0
33628,0.032,0.075,1.013,-11.634,-7.015,-2.613,0.9950,0.0381,-0.0122,0.0912,4.224,-1.787,190.403,0.215,-1.564,2.111,0.000,0.000,0.000,-22.752,0.570,2.111,-0.436,0.782,0.511,0.03,-0.30,1,0
33654,0.039,0.062,1.016,-12.683,-5.009,-2.471,0.9952,0.0331,-0.0157,0.0905,3.616,-2.136,190.330,0.215,-1.564,2.111,0.000,0.000,0.000,-19.504,1.867,2.111,-0.124,0.736,0.475,0.02,-0.22,1,0
33674,0.042,0.053,1.022,-10.733,-3.276,-2.622,0.9953,0.0292,-0.0173,0.0901,3.162,-2.272,190.282,0.215,-1.564,2.111,0.000,0.000,0.000,-16.690,2.428,2.111,-0.015,0.569,0.447,0.03,0.23,1,0
33688,0.042,0.048,1.023,-8.899,-2.206,-2.477,0.9954,0.0271,-0.0180,0.0898,2.912,-2.327,190.255,0.215,-1.564,2.111,0.000,0.000,0.000,-15.740,2.585,2.111,-0.028,0.450,0.422,0.03,0.23,1,0
33704,0.043,0.041,1.024,-6.070,-0.327,-1.699,0.9955,0.0242,-0.0186,0.0895,2.578,-2.373,190.225,0.215,-1.564,2.111,0.000,0.000,0.000,-13.581,2.800,2.111,-0.132,0.240,0.335,0.03,0.22,1,0
33724,0.042,0.034,1.025,-3.006,1.414,-0.773,0.9956,0.0220,-0.0188,0.0894,2.324,-2.370,190.213,0.215,-1.564,2.111,0.000,0.000,0.000,-12.629,2.853,2.111,-0.253,0.055,0.212,0.04,0.20,1,0
33740,0.041,0.031,1.025,1.242,2.856,1.077,0.9956,0.0199,-0.0184,0.0895,2.082,-2.299,190.228,0.215,-1.564,2.111,0.000,0.000,0.000,-11.038,2.701,2.111,-0.390,-0.138,0.005,0.04,0.17,1,0
33758,0.038,0.031,1.024,4.102,3.409,2.865,0.9956,0.0185,-0.0175,0.0898,1.937,-2.187,190.275,0.215,-1.564,2.111,0.000,0.000,0.000,-9.838,2.341,2.111,-0.491,-0.275,-0.162,0.03,-0.07,1,0
33787,0.035,0.036,1.021,6.569,4.219,5.005,0.9955,0.0189,-0.0157,0.0910,1.996,-1.992,190.409,0.215,-1.564,2.111,0.000,0.000,0.000,-9.454,1.829,2.111,-0.624,-0.415,-0.381,0.03,-0.06,1,0
33796,0.035,0.037,1.020,7.124,4.148,5.200,0.9955,0.0201,-0.0153,0.0913,2.134,-1.954,190.449,0.215,-1.564,2.111,0.000,0.000,0.000,-10.109,1.412,2.111,-0.654,-0.422,-0.429,0.03,-0.10,1,0
33808,0.035,0.040,1.018,7.416,4.109,5.281,0.9955,0.0210,-0.0150,0.0916,2.244,-1.938,190.479,0.215,-1.564,2.111,0.000,0.000,0.000,-11.119,1.343,2.111,-0.680,-0.425,-0.467,0.03,-0.10,1,0
33836,0.028,0.053,1.015,6.945,3.661,3.972,0.9952,0.0261,-0.0121,0.0930,2.845,-1.659,190.637,0.215,-1.564,2.111,0.000,0.000,0.000,-14.100,0.502,2.111,-0.769,-0.368,-0.365,0.01,-0.37,1,0
33848,0.026,0.056,1.013,6.528,3.302,2.833,0.9952,0.0277,-0.0110,0.0933,3.043,-1.552,190.676,0.215,-1.564,2.111,0.000,0.000,0.000,-15.056,0.207,2.111,-0.795,-0.336,-0.226,0.01,-0.37,1,0
33869,0.025,0.063,1.007,5.361,2.246,0.774,0.9951,0.0305,-0.0097,0.0936,3.380,-1.435,190.707,0.215,-1.564,2.111,0.000,0.000,0.000,-16.911,-0.347,2.111,-0.833,-0.222,-0.002,0.01,-0.30,1,0
33886,0.024,0.068,1.004,3.247,1.497,-0.775,0.9950,0.0326,-0.0090,0.0936,3.628,-1.380,190.703,0.215,-1.564,2.111,0.000,0.000,0.000,-18.728,-0.608,2.111,-0.858,-0.108,0.147,0.02,0.21,1,0
33900,0.023,0.070,1.002,1.183,0.516,-2.484,0.9950,0.0345,-0.0086,0.0933,3.844,-1.350,190.672,0.215,-1.564,2.111,0.000,0.000,0.000,-19.531,-0.687,2.111,-0.879,0.025,0.275,0.02,0.20,1,0
33920,0.023,0.074,1.000,-0.814,-1.298,-4.208,0.9950,0.0365,-0.0083,0.0927,4.075,-1.339,190.596,0.215,-1.564,2.111,0.000,0.000,0.000,-20.937,-0.739,2.111,-0.896,0.204,0.407,0.02,0.19,1,0
33936,0.024,0.074,1.002,-2.698,-2.673,-4.702,0.9950,0.0376,-0.0085,0.0921,4.207,-1.362,190.527,0.215,-1.564,2.111,0.000,0.000,0.000,-22.200,-0.751,2.111,-0.894,0.309,0.485,0.03,0.18,1,0
34389,0.028,0.060,1.012,1.922,1.775,-0.293,0.9952,0.0307,-0.0111,0.0918,3.392,-1.585,190.488,0.215,-1.564,2.111,0.000,0.000,0.000,-17.731,0.000,2.111,-0.882,-0.027,0.228,0.08,-0.36,1,0
34419,0.029,0.060,1.009,1.027,1.918,-0.457,0.9952,0.0307,-0.0117,0.0916,3.378,-1.653,190.474,0.215,-1.564,2.111,0.000,0.000,0.000,-17.705,0.316,2.111,-0.918,0.085,0.264,0.07,-0.14,1,0
34440,0.029,0.057,1.010,0.425,1.206,0.019,0.9953,0.0294,-0.0116,0.0917,3.233,-1.635,190.476,0.215,-1.564,2.111,0.000,0.000,0.000,-17.153,0.248,2.111,-0.924,0.166,0.195,0.07,-0.13,1,0
34463,0.030,0.055,1.010,-0.300,-0.009,0.774,0.9953,0.0284,-0.0125,0.0918,3.109,-1.729,190.490,0.215,-1.564,2.111,0.000,0.000,0.000,-16.541,0.374,2.111,-0.897,0.315,0.091,0.07,-0.11,1,0
34478,0.032,0.053,1.008,-1.051,-0.619,1.538,0.9953,0.0275,-0.0131,0.0920,2.999,-1.787,190.511,0.215,-1.564,2.111,0.000,0.000,0.000,-15.555,0.758,2.111,-0.822,0.429,-0.019,0.07,-0.11,1,0
34496,0.032,0.049,1.008,-2.185,-0.723,2.788,0.9953,0.0257,-0.0138,0.0923,2.785,-1.841,190.556,0.215,-1.564,2.111,0.000,0.000,0.000,-14.644,0.966,2.111,-0.709,0.514,-0.168,0.06,-0.10,1,0
34508,0.032,0.046,1.009,-2.837,-0.617,3.920,0.9953,0.0243,-0.0140,0.0927,2.621,-1.851,190.600,0.215,-1.564,2.111,0.000,0.000,0.000,-13.887,0.969,2.111,-0.627,0.525,-0.248,0.06,-0.10,1,0
34525,0.034,0.039,1.009,-3.126,-0.724,5.782,0.9953,0.0223,-0.0142,0.0934,2.392,-1.862,190.685,0.215,-1.564,2.111,0.000,0.000,0.000,-12.311,1.002,2.111,-0.497,0.519,-0.373,0.06,-0.09,1,0
34539,0.036,0.033,1.011,-2.878,-0.597,7.529,0.9952,0.0207,-0.0150,0.0943,2.198,-1.932,190.784,0.215,-1.564,2.111,0.000,0.000,0.000,-11.384,1.228,2.111,-0.429,0.513,-0.445,0.06,-0.08,1,0
34558,0.037,0.026,1.013,-2.030,-0.270,10.254,0.9951,0.0183,-0.0157,0.0959,1.914,-1.993,190.972,0.215,-1.564,2.111,0.000,0.000,0.000,-9.949,1.443,2.111,-0.361,0.487,-0.546,0.06,-0.07,1,0
34576,0.037,0.020,1.013,0.821,0.596,12.824,0.9949,0.0164,-0.0161,0.0977,1.692,-2.020,191.190,0.215,-1.564,2.111,0.000,0.000,0.000,-8.494,1.579,2.111,-0.435,0.408,-0.622,0.06,0.04,1,0
34594,0.037,0.015,1.016,3.693,0.943,14.490,0.9948,0.0153,-0.0163,0.0994,1.560,-2.028,191.389,0.215,-1.564,2.111,0.000,0.000,0.000,-7.902,1.612,2.111,-0.509,0.329,-0.672,0.08,0.04,1,0
34603,0.039,0.013,1.018,5.096,1.243,16.174,0.9946,0.0143,-0.0164,0.1016,1.445,-2.040,191.643,0.215,-1.564,2.111,0.000,0.000,0.000,-7.014,1.638,2.111,-0.582,0.267,-0.721,0.09,0.95,1,0
34620,0.043,0.013,1.019,4.502,1.728,17.259,0.9944,0.0136,-0.0168,0.1037,1.354,-2.077,191.885,0.215,-1.564,2.111,0.000,0.000,0.000,-6.647,1.708,2.111,-0.630,0.206,-0.757,0.11,0.90,1,0
34636,0.045,0.015,1.023,2.615,2.163,18.331,0.9941,0.0128,-0.0177,0.1066,1.239,-2.173,192.214,0.215,-1.564,2.111,0.000,0.000,0.000,-5.935,2.005,2.111,-0.556,0.153,-0.798,0.11,0.73,1,0
34653,0.046,0.017,1.023,2.365,3.005,18.994,0.9938,0.0121,-0.0187,0.1092,1.149,-2.280,192.519,0.108,-1.564,2.111,0.000,0.000,0.000,-5.814,2.500,2.111,-0.459,0.108,-0.828,0.10,-0.45,1,0
34664,0.045,0.019,1.023,2.902,3.492,19.433,0.9936,0.0120,-0.0192,0.1106,1.129,-2.340,192.675,0.108,-1.564,2.111,0.000,0.000,0.000,-5.814,2.500,2.111,-0.471,0.080,-0.841,0.10,-0.45,1,0
34686,0.043,0.024,1.023,5.948,4.344,20.523,0.9932,0.0140,-0.0195,0.1140,1.336,-2.399,193.073,0.108,-1.564,2.111,0.000,0.000,0.000,-5.422,2.964,2.111,-0.564,0.021,-0.870,0.09,-0.43,1,0
34704,0.042,0.032,1.024,9.010,5.227,20.967,0.9927,0.0174,-0.0180,0.1180,1.734,-2.288,193.525,0.215,-1.564,2.111,0.000,0.000,0.000,-8.265,2.540,2.111,-0.658,-0.093,-0.898,0.08,-0.39,1,0
34727,0.043,0.045,1.028,6.311,6.596,19.989,0.9921,0.0212,-0.0171,0.1223,2.171,-2.245,194.012,0.215,-1.564,2.111,0.000,0.000,0.000,-10.362,2.407,2.111,-0.726,-0.253,-0.878,0.08,-0.18,1,0
34743,0.044,0.051,1.028,3.586,7.477,18.946,0.9918,0.0229,-0.0167,0.1247,2.373,-2.222,194.282,0.215,-1.564,2.111,0.000,0.000,0.000,-11.259,2.358,2.111,-0.752,-0.351,-0.779,0.08,-0.17,1,0
34754,0.043,0.054,1.026,2.227,7.980,18.346,0.9916,0.0238,-0.0163,0.1260,2.547,-2.171,194.538,0.215,-1.564,2.111,0.000,0.000,0.000,-12.751,2.182,2.111,-0.721,-0.436,-0.649,0.08,-0.16,1,0
34766,0.038,0.059,1.022,0.948,9.006,17.004,0.9912,0.0256,-0.0151,0.1287,2.687,-2.097,194.746,0.215,-1.564,2.111,0.000,0.000,0.000,-13.408,2.002,2.111,-0.725,-0.501,-0.530,0.07,-0.16,1,0
34787,0.033,0.063,1.016,3.149,8.824,15.399,0.9908,0.0276,-0.0132,0.1315,2.942,-1.912,195.069,0.215,-1.564,2.111,0.000,0.000,0.000,-14.767,1.415,2.111,-0.776,-0.573,-0.323,0.07,-0.18,1,0
35275,0.000,0.060,1.013,-0.519,-0.425,3.389,0.9887,0.0294,0.0042,0.1466,3.407,-0.014,196.869,0.215,-1.564,2.111,0.000,0.000,0.000,-17.895,-5.334,2.111,-0.817,0.221,-0.326,-0.02,-0.38,1,0
35300,-0.000,0.061,1.014,0.811,0.702,3.693,0.9886,0.0296,0.0045,0.1474,3.428,0.006,196.956,0.215,-1.564,2.111,0.000,0.000,0.000,-17.746,-5.479,2.111,-0.859,-0.005,-0.376,-0.02,-0.34,1,0
35325,-0.000,0.062,1.012,0.787,1.092,3.642,0.9885,0.0301,0.0047,0.1480,3.490,0.017,197.030,0.215,-1.564,2.111,0.000,0.000,0.000,-18.262,-5.500,2.111,-0.885,-0.126,-0.350,-0.03,-0.14,1,0
35347,0.001,0.061,1.008,-0.224,1.250,2.794,0.9884,0.0297,0.0042,0.1488,3.441,-0.031,197.117,0.215,-1.564,2.111,0.000,0.000,0.000,-18.210,-5.317,2.111,-0.911,-0.163,-0.235,-0.03,-0.14,1,0
35358,0.000,0.061,1.008,0.062,1.218,2.447,0.9884,0.0299,0.0044,0.1490,3.463,-0.016,197.143,0.215,-1.564,2.111,0.000,0.000,0.000,-18.011,-5.365,2.111,-0.920,-0.162,-0.166,-0.03,-0.12,1,0
35373,-0.000,0.063,1.009,0.319,0.852,2.324,0.9883,0.0311,0.0048,0.1493,3.601,0.011,197.182,0.215,-1.564,2.111,0.000,0.000,0.000,-18.911,-5.495,2.111,-0.932,-0.147,-0.083,-0.03,-0.05,1,0
35384,-0.001,0.063,1.010,0.224,0.769,2.260,0.9883,0.0310,0.0055,0.1494,3.608,0.087,197.200,0.215,-1.564,2.111,0.000,0.000,0.000,-18.911,-5.495,2.111,-0.937,-0.127,-0.057,-0.03,-0.05,1,0
35405,-0.001,0.065,1.010,-0.105,0.971,2.503,0.9882,0.0317,0.0053,0.1499,3.686,0.052,197.258,0.215,-1.564,2.111,0.000,0.000,0.000,-19.382,-5.626,2.111,-0.951,-0.128,-0.038,-0.03,-0.04,1,0
35419,-0.001,0.065,1.009,-0.381,0.824,2.803,0.9881,0.0317,0.0051,0.1503,3.678,0.030,197.302,0.215,-1.564,2.111,0.000,0.000,0.000,-19.438,-5.632,2.111,-0.957,-0.118,-0.056,-0.03,0.01,1,0
35438,0.000,0.063,1.007,-0.925,0.034,3.211,0.9881,0.0310,0.0045,0.1508,3.594,-0.022,197.357,0.215,-1.564,2.111,0.000,0.000,0.000,-19.073,-5.435,2.111,-0.965,-0.035,-0.106,-0.02,0.41,1,0
35458,0.002,0.060,1.005,-1.437,-0.541,3.649,0.9880,0.0295,0.0038,0.1514,3.410,-0.087,197.426,0.215,-1.564,2.111,0.000,0.000,0.000,-18.384,-5.278,2.111,-0.969,0.086,-0.168,-0.01,0.39,1,0
35474,0.002,0.058,1.004,-1.567,-0.847,3.814,0.9880,0.0289,0.0034,0.1518,3.331,-0.122,197.463,0.215,-1.564,2.111,0.000,0.000,0.000,-17.703,-5.126,2.111,-0.962,0.149,-0.191,-0.01,0.39,1,0
35486,0.002,0.056,1.005,-1.920,-1.245,4.363,0.9879,0.0277,0.0032,0.1523,3.176,-0.139,197.529,0.215,-1.564,2.111,0.000,0.000,0.000,-16.763,-5.052,2.111,-0.940,0.231,-0.242,-0.00,0.37,1,0
35516,0.003,0.048,1.007,-5.382,-2.598,6.824,0.9878,0.0244,0.0018,0.1539,2.797,-0.221,197.708,0.215,-1.564,2.111,0.000,0.000,0.000,-14.967,-4.721,2.111,-0.672,0.402,-0.438,0.01,0.35,1,0
35533,0.004,0.042,1.008,-5.844,-3.058,8.380,0.9877,0.0218,0.0013,0.1551,2.494,-0.238,197.845,0.215,-1.564,2.111,0.000,0.000,0.000,-13.114,-4.666,2.111,-0.482,0.482,-0.532,0.02,0.34,1,0
35546,0.003,0.040,1.010,-5.478,-3.442,9.381,0.9876,0.0204,0.0011,0.1559,2.333,-0.236,197.934,0.215,-1.564,2.111,0.000,0.000,0.000,-12.158,-4.598,2.111,-0.412,0.518,-0.577,0.02,0.34,1,0
35559,0.003,0.040,1.011,-4.929,-3.740,11.030,0.9874,0.0198,0.0014,0.1571,2.263,-0.198,198.076,0.215,-1.564,1.760,0.000,0.000,0.000,-11.417,-4.807,2.111,-0.361,0.549,-0.633,0.02,0.30,1,0
35567,0.002,0.039,1.013,-4.143,-3.796,11.891,0.9873,0.0194,0.0017,0.1579,2.226,-0.160,198.167,0.215,-1.564,1.760,0.000,0.000,0.000,-11.505,-4.765,1.760,-0.380,0.549,-0.661,0.02,0.30,1,0
35594,0.003,0.043,1.020,-1.641,-3.491,14.419,0.9867,0.0206,0.0016,0.1610,2.364,-0.199,198.533,0.108,-1.564,1.408,0.000,0.000,0.000,-12.394,-4.784,1.408,-0.532,0.466,-0.745,0.03,0.12,1,0
35620,0.003,0.047,1.020,0.908,-2.408,15.708,0.9862,0.0228,0.0021,0.1641,2.613,-0.191,198.896,0.215,-1.564,2.111,0.000,0.000,0.000,-13.031,-4.747,2.111,-0.633,0.319,-0.800,0.03,0.10,1,0
35644,0.002,0.052,1.018,1.606,-0.807,15.714,0.9856,0.0250,0.0028,0.1671,2.879,-0.164,199.240,0.108,-1.564,2.111,0.000,0.000,0.000,-14.774,-4.872,2.111,-0.706,0.079,-0.822,0.03,-0.05,1,0
35662,0.002,0.055,1.016,3.450,0.458,14.263,0.9851,0.0271,0.0035,0.1699,3.128,-0.133,199.570,0.215,-1.564,2.111,0.000,0.000,0.000,-16.145,-5.054,2.111,-0.765,-0.136,-0.705,0.02,-0.05,1,0
35678,0.005,0.060,1.013,4.806,1.324,12.725,0.9847,0.0288,0.0029,0.1716,3.309,-0.234,199.758,0.215,-1.564,2.111,0.000,0.000,0.000,-16.968,-4.728,2.111,-0.800,-0.262,-0.505,0.03,-0.01,1,0
35696,0.008,0.068,1.013,5.612,2.941,10.229,0.9843,0.0315,0.0028,0.1735,3.615,-0.315,199.987,0.215,-1.564,2.111,0.000,0.000,0.000,-18.456,-4.414,2.111,-0.833,-0.385,-0.255,0.03,0.30,1,0
36164,0.003,0.061,1.016,3.833,2.483,1.972,0.9840,0.0298,0.0036,0.1753,3.431,-0.194,200.199,0.215,-1.564,2.111,0.000,0.000,0.000,-18.039,-4.859,2.111,-0.987,-0.427,0.005,0.09,0.27,1,0
36782,0.009,0.054,1.013,-3.118,-2.166,-1.241,0.9843,0.0272,0.0000,0.1746,3.071,-0.540,200.109,0.215,-1.564,2.111,0.000,0.000,0.000,-16.493,-3.807,2.111,-0.983,0.282,0.132,0.22,-0.18,1,0
37213,0.008,0.054,1.011,-0.731,-1.224,-0.806,0.9843,0.0267,0.0008,0.1744,3.026,-0.444,200.086,0.215,-1.564,2.287,0.000,0.000,0.000,-16.055,-3.982,2.287,-0.998,0.138,0.201,0.07,0.12,1,0
37224,0.008,0.053,1.011,0.022,-0.875,-0.790,0.9843,0.0265,0.0004,0.1743,2.998,-0.479,200.072,0.215,-1.564,2.287,0.000,0.000,0.000,-15.421,-3.829,2.287,-0.998,0.126,0.179,0.07,0.11,1,0
37239,0.008,0.053,1.012,0.499,-0.793,-0.650,0.9843,0.0266,0.0005,0.1742,3.015,-0.480,200.063,0.215,-1.564,2.287,0.000,0.000,0.000,-15.414,-3.757,2.287,-0.998,0.112,0.162,0.07,0.07,1,0
37260,0.009,0.053,1.012,0.095,-0.595,-0.401,0.9844,0.0267,-0.0001,0.1741,3.010,-0.539,200.051,0.215,-1.564,2.639,0.000,0.000,0.000,-15.528,-3.732,2.287,-0.999,0.078,0.119,0.06,-0.33,1,0
37279,0.011,0.053,1.012,-0.261,-0.374,-0.445,0.9844,0.0267,-0.0007,0.1741,2.999,-0.614,200.043,0.215,-1.564,2.639,0.000,0.000,0.000,-15.479,-3.337,2.639,-0.999,0.074,0.144,0.06,-0.31,1,0
37293,0.011,0.052,1.012,-0.106,-0.208,-0.328,0.9844,0.0261,-0.0011,0.1741,2.928,-0.648,200.039,0.215,-1.564,2.639,0.000,0.000,0.000,-15.152,-3.195,2.639,-0.999,0.063,0.142,0.06,-0.23,1,0
37484,0.014,0.059,1.009,-0.015,-0.097,-1.550,0.9846,0.0302,-0.0019,0.1719,3.371,-0.807,199.779,0.215,-1.564,2.639,0.000,0.000,0.000,-17.366,-2.637,2.639,-0.724,0.355,0.151,0.07,0.45,1,0
37499,0.015,0.050,1.011,-0.039,-0.329,-0.504,0.9847,0.0288,-0.0024,0.1718,3.209,-0.840,199.772,0.215,-1.564,2.639,0.000,0.000,0.000,-17.238,-2.572,2.639,-0.761,0.210,0.038,0.07,0.37,1,0
37516,0.015,0.055,1.011,-1.850,0.211,-1.383,0.9848,0.0278,-0.0020,0.1716,3.100,-0.776,199.748,0.215,-1.564,2.639,0.000,0.000,0.000,-16.038,-2.745,2.639,-0.785,0.171,0.086,0.07,-0.14,1,0
37534,0.014,0.046,1.013,-2.739,0.013,0.667,0.9848,0.0270,-0.0028,0.1716,2.996,-0.849,199.751,0.215,-1.564,2.639,0.000,0.000,0.000,-16.060,-2.597,2.639,-0.751,0.093,-0.016,0.07,-0.14,1,0
37564,0.015,0.043,1.009,3.111,-0.530,-0.046,0.9849,0.0238,-0.0028,0.1717,2.636,-0.788,199.757,0.215,-1.564,2.639,0.000,0.000,0.000,-13.699,-2.736,2.639,-0.822,0.141,-0.072,0.06,-0.14,1,0
37586,0.018,0.044,1.007,3.389,0.573,0.117,0.9849,0.0229,-0.0035,0.1718,2.516,-0.848,199.770,0.215,-1.564,2.287,0.000,0.000,0.000,-12.838,-2.650,2.287,-0.855,0.077,-0.088,0.06,-0.30,1,0
37600,0.017,0.043,1.008,2.942,0.144,1.081,0.9848,0.0227,-0.0042,0.1719,2.476,-0.919,199.786,0.215,-1.564,2.287,0.000,0.000,0.000,-12.761,-2.373,2.287,-0.874,0.009,-0.148,0.06,-0.20,1,0
37628,0.013,0.042,1.014,3.163,1.044,1.331,0.9848,0.0227,-0.0034,0.1721,2.493,-0.829,199.813,0.215,-1.564,2.287,0.000,0.000,0.000,-13.012,-2.335,2.287,-0.898,-0.024,-0.121,0.05,-0.19,1,0
37640,0.014,0.047,1.009,2.188,0.179,0.970,0.9848,0.0232,-0.0029,0.1722,2.561,-0.782,199.822,0.215,-1.564,2.287,0.000,0.000,0.000,-12.704,-2.640,2.287,-0.906,0.009,-0.130,0.05,-0.20,1,0
37660,0.013,0.044,1.013,0.949,1.146,1.186,0.9847,0.0231,-0.0025,0.1724,2.560,-0.742,199.849,0.215,-1.564,2.287,0.000,0.000,0.000,-13.063,-2.966,2.287,-0.917,-0.033,-0.124,0.04,-0.29,1,0
37678,0.011,0.042,1.014,0.120,0.712,1.498,0.9847,0.0232,-0.0020,0.1726,2.576,-0.679,199.872,0.215,-1.564,2.111,0.000,0.000,0.000,-13.312,-3.062,2.111,-0.902,-0.010,-0.116,0.04,-0.28,1,0
37695,0.010,0.043,1.011,0.471,-0.514,1.637,0.9847,0.0231,-0.0016,0.1728,2.578,-0.634,199.896,0.215,-1.564,2.111,0.000,0.000,0.000,-13.430,-3.192,2.111,-0.880,0.007,-0.123,0.03,-0.25,1,0
37714,0.013,0.050,1.006,0.411,-1.052,1.483,0.9846,0.0235,-0.0017,0.1731,2.617,-0.658,199.927,0.215,-1.564,2.111,0.000,0.000,0.000,-13.294,-3.199,2.111,-0.889,0.048,-0.142,0.03,-0.13,1,0
37734,0.010,0.044,1.017,1.313,-0.791,2.136,0.9846,0.0235,-0.0014,0.1734,2.626,-0.620,199.963,0.215,-1.564,2.111,0.000,0.000,0.000,-13.461,-3.204,2.111,-0.903,0.098,-0.155,0.03,-0.13,1,0
37747,0.010,0.044,1.019,1.444,-0.274,2.470,0.9845,0.0236,-0.0013,0.1737,2.638,-0.621,199.993,0.215,-1.564,2.111,0.000,0.000,0.000,-13.312,-3.417,2.111,-0.914,0.123,-0.173,0.03,-0.13,1,0
37766,0.011,0.045,1.015,2.988,-0.607,2.249,0.9845,0.0237,-0.0018,0.1740,2.642,-0.678,200.032,0.215,-1.564,2.111,0.000,0.000,0.000,-13.856,-3.080,2.111,-0.929,0.045,-0.178,0.03,-0.09,1,0
37788,0.012,0.044,1.017,1.708,0.637,2.632,0.9844,0.0243,-0.0019,0.1742,2.710,-0.698,200.058,0.215,-1.564,2.111,0.000,0.000,0.000,-14.016,-3.022,2.111,-0.938,-0.014,-0.175,0.03,0.16,1,0
37805,0.014,0.045,1.013,0.943,1.255,2.381,0.9843,0.0251,-0.0027,0.1748,2.782,-0.808,200.118,0.215,-1.564,2.111,0.000,0.000,0.000,-14.451,-2.698,2.111,-0.952,-0.063,-0.143,0.03,0.15,1,0
38195,0.014,0.051,1.012,-0.080,-0.029,-0.450,0.9842,0.0242,-0.0016,0.1756,2.692,-0.671,200.216,0.215,-1.564,2.111,0.000,0.000,0.000,-13.729,-3.169,2.111,-0.814,-0.128,0.060,0.06,-0.49,1,0
38216,0.015,0.052,1.010,1.520,0.136,-1.135,0.9842,0.0242,-0.0021,0.1755,2.693,-0.722,200.202,0.215,-1.564,2.111,0.000,0.000,0.000,-13.750,-3.023,2.111,-0.851,-0.194,0.141,0.06,-0.36,1,0
38234,0.014,0.052,1.010,1.363,0.589,-1.013,0.9842,0.0246,-0.0020,0.1754,2.740,-0.725,200.194,0.215,-1.564,2.111,0.000,0.000,0.000,-14.095,-2.918,2.111,-0.868,-0.230,0.162,0.07,-0.36,1,0
38246,0.014,0.053,1.011,0.712,1.554,-0.616,0.9842,0.0246,-0.0018,0.1753,2.743,-0.699,200.187,0.215,-1.564,2.111,0.000,0.000,0.000,-13.985,-3.037,2.111,-0.890,-0.273,0.144,0.08,0.62,1,0
38266,0.013,0.052,1.010,0.858,1.177,0.268,0.9842,0.0245,-0.0015,0.1754,2.734,-0.663,200.191,0.215,-1.564,2.111,0.000,0.000,0.000,-13.885,-3.263,2.111,-0.910,-0.240,0.065,0.09,0.59,1,0
38288,0.011,0.046,1.007,0.363,-0.148,0.660,0.9842,0.0238,-0.0013,0.1755,2.658,-0.622,200.208,0.215,-1.564,2.111,0.000,0.000,0.000,-14.006,-3.215,2.111,-0.928,-0.115,-0.004,0.09,0.50,1,0
38308,0.009,0.043,1.006,-0.316,-0.623,0.743,0.9842,0.0239,-0.0011,0.1756,2.671,-0.602,200.223,0.215,-1.564,2.111,0.000,0.000,0.000,-13.758,-3.248,2.111,-0.940,0.002,-0.004,0.09,0.02,1,0
38520,0.013,0.048,1.010,-1.906,1.368,-1.138,0.9841,0.0258,-0.0025,0.1757,2.864,-0.801,200.228,0.215,-1.564,2.111,0.000,0.000,0.000,-14.998,-2.691,2.111,-0.890,-0.126,0.231,0.03,-0.34,1,0
38540,0.012,0.052,1.013,-0.633,1.310,-0.831,0.9841,0.0257,-0.0019,0.1755,2.864,-0.733,200.205,0.215,-1.564,2.111,0.000,0.000,0.000,-14.706,-2.701,2.111,-0.910,-0.137,0.218,0.02,-0.31,1,0
38564,0.011,0.050,1.009,-0.101,0.389,-0.149,0.9842,0.0250,-0.0012,0.1754,2.800,-0.634,200.192,0.215,-1.564,2.111,0.000,0.000,0.000,-14.433,-3.247,2.111,-0.930,-0.050,0.127,0.02,-0.20,1,0
38579,0.009,0.044,1.008,-0.225,0.098,-0.084,0.9842,0.0242,-0.0015,0.1753,2.706,-0.655,200.188,0.215,-1.564,2.111,0.000,0.000,0.000,-14.065,-3.249,2.111,-0.939,-0.055,0.085,0.02,-0.19,1,0
38600,0.012,0.049,1.010,-0.899,-0.290,-0.373,0.9842,0.0244,-0.0017,0.1752,2.714,-0.679,200.176,0.215,-1.564,2.111,0.000,0.000,0.000,-13.754,-3.156,2.111,-0.937,-0.021,0.093,0.01,-0.17,1,0
38616,0.010,0.043,1.011,-2.455,-0.532,0.309,0.9842,0.0238,-0.0016,0.1752,2.656,-0.657,200.174,0.215,-1.564,2.111,0.000,0.000,0.000,-13.775,-3.134,2.111,-0.904,-0.010,0.058,0.01,-0.05,1,0
38636,0.010,0.043,1.013,-2.373,0.544,1.142,0.9842,0.0233,-0.0019,0.1753,2.588,-0.679,200.181,0.215,-1.564,2.111,0.000,0.000,0.000,-13.404,-3.030,2.111,-0.894,-0.024,-0.022,0.01,-0.05,1,0
38648,0.013,0.045,1.012,-1.322,0.337,1.276,0.9842,0.0231,-0.0023,0.1754,2.556,-0.727,200.190,0.215,-1.564,2.111,0.000,0.000,0.000,-12.985,-3.070,2.111,-0.904,-0.043,-0.069,0.01,-0.05,1,0
38666,0.010,0.039,1.012,-0.677,0.785,1.948,0.9842,0.0224,-0.0023,0.1755,2.484,-0.716,200.211,0.215,-1.564,2.111,0.000,0.000,0.000,-12.808,-2.994,2.111,-0.915,-0.099,-0.146,0.01,-0.05,1,0
38679,0.014,0.043,1.010,1.963,-0.263,1.418,0.9842,0.0220,-0.0026,0.1758,2.431,-0.735,200.237,0.215,-1.564,2.111,0.000,0.000,0.000,-12.462,-2.960,2.111,-0.928,-0.101,-0.174,0.01,-0.06,1,0
38698,0.012,0.039,1.011,1.423,0.504,2.022,0.9841,0.0223,-0.0027,0.1761,2.458,-0.757,200.271,0.215,-1.564,2.111,0.000,0.000,0.000,-12.578,-2.759,2.111,-0.940,-0.106,-0.176,0.00,-0.19,1,0
38715,0.017,0.049,1.012,1.724,1.063,1.438,0.9841,0.0227,-0.0032,0.1763,2.495,-0.815,200.300,0.215,-1.564,2.111,0.000,0.000,0.000,-12.485,-2.696,2.111,-0.951,-0.129,-0.168,0.00,-0.18,1,0
38733,0.014,0.043,1.012,1.266,0.266,1.382,0.9840,0.0231,-0.0032,0.1766,2.541,-0.827,200.328,0.215,-1.564,2.111,0.000,0.000,0.000,-12.985,-2.573,2.111,-0.959,-0.136,-0.124,-0.00,-0.18,1,0
38744,0.015,0.048,1.015,0.532,1.622,1.336,0.9840,0.0239,-0.0033,0.1767,2.629,-0.855,200.336,0.215,-1.564,2.111,0.000,0.000,0.000,-12.985,-2.573,2.111,-0.962,-0.132,-0.087,-0.00,-0.18,1,0
38768,0.014,0.049,1.010,0.549,-0.235,0.065,0.9839,0.0253,-0.0025,0.1768,2.804,-0.797,200.353,0.215,-1.564,2.111,0.000,0.000,0.000,-14.096,-2.575,2.111,-0.972,-0.049,0.047,-0.01,-0.25,1,0
38786,0.012,0.053,1.012,-1.228,1.483,-0.097,0.9839,0.0264,-0.0019,0.1768,2.941,-0.744,200.349,0.215,-1.564,2.111,0.000,0.000,0.000,-14.899,-2.819,2.111,-0.976,-0.029,0.154,-0.02,-0.24,1,0
38799,0.010,0.054,1.012,-1.993,1.106,-0.411,0.9839,0.0267,-0.0013,0.1767,2.982,-0.686,200.342,0.215,-1.564,2.111,0.000,0.000,0.000,-15.187,-2.984,2.111,-0.979,-0.027,0.207,-0.01,-0.15,1,0
38818,0.014,0.060,1.010,-2.901,-1.179,-1.402,0.9839,0.0272,-0.0008,0.1765,3.052,-0.645,200.320,0.215,-1.564,2.111,0.000,0.000,0.000,-15.691,-3.241,2.111,-0.970,0.074,0.296,-0.00,0.53,1,0
39247,0.013,0.036,1.010,-0.732,-0.760,0.102,0.9847,0.0217,-0.0038,0.1726,2.370,-0.859,199.863,0.215,-1.564,2.111,0.000,0.000,0.000,-12.257,-2.400,2.111,-0.937,0.089,0.047,0.17,-0.05,1,0
39260,0.014,0.041,1.017,-0.721,0.064,-0.370,0.9848,0.0209,-0.0036,0.1726,2.286,-0.814,199.863,0.215,-1.564,2.111,0.000,0.000,0.000,-11.977,-2.428,2.111,-0.917,0.012,0.035,0.18,-0.03,1,0
39275,0.019,0.045,1.012,0.354,-0.836,-1.137,0.9848,0.0214,-0.0038,0.1725,2.337,-0.849,199.855,0.215,-1.564,2.111,0.000,0.000,0.000,-11.953,-2.452,2.111,-0.928,-0.011,0.096,0.18,0.16,1,0
39287,0.017,0.040,1.010,-0.734,-0.902,-0.707,0.9848,0.0214,-0.0042,0.1724,2.333,-0.902,199.844,0.215,-1.564,2.111,0.000,0.000,0.000,-11.994,-2.330,2.111,-0.932,-0.029,0.114,0.18,0.16,1,0
39307,0.017,0.041,1.008,-0.912,-1.211,-0.859,0.9848,0.0213,-0.0042,0.1723,2.319,-0.897,199.832,0.215,-1.564,2.111,0.000,0.000,0.000,-12.021,-2.329,2.111,-0.936,0.028,0.140,0.18,0.16,1,0
39336,0.018,0.043,1.008,-0.672,-1.090,-0.661,0.9848,0.0209,-0.0040,0.1722,2.284,-0.859,199.817,0.215,-1.564,2.111,0.000,0.000,0.000,-11.584,-2.588,2.111,-0.946,0.083,0.121,0.18,-0.15,1,0
39546,0.028,0.036,0.996,-0.208,-1.624,-0.545,0.9850,0.0216,-0.0117,0.1707,2.211,-1.747,199.627,0.215,-1.564,2.111,0.000,0.000,0.000,-11.487,0.690,2.111,-0.950,0.281,0.134,0.11,-0.43,1,0
39564,0.020,0.032,1.003,-1.240,0.553,0.274,0.9851,0.0203,-0.0110,0.1706,2.073,-1.641,199.624,0.215,-1.564,2.111,0.000,0.000,0.000,-10.444,0.345,2.111,-0.941,0.184,0.079,0.10,-0.40,1,0
39580,0.024,0.034,1.004,0.618,-1.025,0.034,0.9851,0.0194,-0.0097,0.1706,2.005,-1.476,199.628,0.215,-1.564,2.111,0.000,0.000,0.000,-10.098,0.000,2.111,-0.929,0.103,0.024,0.09,-0.40,1,0
39598,0.021,0.033,1.008,0.050,-0.521,0.238,0.9851,0.0190,-0.0091,0.1707,1.972,-1.403,199.634,0.215,-1.564,2.111,0.000,0.000,0.000,-9.978,-0.355,2.111,-0.934,0.066,-0.013,0.08,-0.56,1,0
39618,0.023,0.034,1.005,0.025,-1.005,0.271,0.9851,0.0189,-0.0093,0.1707,1.949,-1.423,199.638,0.215,-1.564,2.111,0.000,0.000,0.000,-9.746,-0.358,2.111,-0.942,0.099,0.003,0.07,-0.53,1,0
39635,0.028,0.035,1.003,1.020,-2.122,-0.231,0.9851,0.0186,-0.0086,0.1707,1.934,-1.332,199.643,0.215,-1.564,2.111,0.000,0.000,0.000,-9.442,-0.952,2.111,-0.947,0.052,0.021,0.06,-0.50,1,0
39652,0.014,0.033,1.012,-0.323,0.963,1.049,0.9851,0.0188,-0.0079,0.1708,1.966,-1.259,199.653,0.215,-1.564,2.111,0.000,0.000,0.000,-9.775,-1.066,2.111,-0.956,0.001,-0.015,0.05,-0.45,1,0
39664,0.020,0.035,1.009,0.503,-1.639,0.559,0.9851,0.0186,-0.0070,0.1709,1.962,-1.152,199.661,0.215,-1.564,2.111,0.000,0.000,0.000,-9.732,-1.372,2.111,-0.960,0.000,-0.028,0.05,-0.45,1,0
39678,0.022,0.037,1.007,-0.633,-1.672,0.556,0.9851,0.0193,-0.0077,0.1709,2.035,-1.243,199.667,0.215,-1.564,2.111,0.000,0.000,0.000,-9.992,-1.094,2.111,-0.962,0.087,-0.004,0.05,-0.21,1,0
39700,0.025,0.034,1.008,-0.702,-1.962,0.065,0.9851,0.0183,-0.0073,0.1710,1.923,-1.185,199.678,0.215,-1.564,2.111,0.000,0.000,0.000,-9.821,-1.555,2.111,-0.940,0.077,0.044,0.04,-0.20,1,0
39714,0.021,0.034,1.010,-0.053,-0.798,0.536,0.9851,0.0185,-0.0077,0.1711,1.938,-1.236,199.682,0.215,-1.564,2.111,0.000,0.000,0.000,-9.638,-1.073,2.111,-0.948,0.086,0.050,0.04,-0.15,1,0
39726,0.016,0.030,1.015,0.345,0.304,0.854,0.9851,0.0178,-0.0070,0.1711,1.869,-1.138,199.692,0.215,-1.564,2.111,0.000,0.000,0.000,-9.505,-1.380,2.111,-0.954,-0.012,0.023,0.05,-0.15,1,0
39748,0.018,0.033,1.015,0.776,2.130,1.128,0.9850,0.0184,-0.0085,0.1712,1.909,-1.318,199.703,0.215,-1.564,2.111,0.000,0.000,0.000,-9.209,-0.935,2.111,-0.963,-0.074,0.019,0.05,0.21,1,0
39766,0.022,0.031,1.015,-0.023,0.136,0.191,0.9850,0.0176,-0.0077,0.1713,1.837,-1.221,199.715,0.215,-1.564,2.111,0.000,0.000,0.000,-9.226,-1.150,2.111,-0.958,-0.158,0.012,0.05,0.20,1,0
39786,0.026,0.033,1.010,-0.951,-0.436,-0.058,0.9850,0.0179,-0.0093,0.1714,1.836,-1.403,199.714,0.215,-1.564,2.111,0.000,0.000,0.000,-8.991,-0.619,2.111,-0.913,-0.012,0.088,0.06,0.20,1,0
39816,0.030,0.031,1.006,2.128,-1.337,-0.124,0.9850,0.0165,-0.0090,0.1713,1.684,-1.343,199.715,0.215,-1.564,2.111,0.000,0.000,0.000,-8.156,-0.942,2.111,-0.918,0.099,0.153,0.07,0.28,1,0
39827,0.022,0.032,1.009,1.685,0.331,0.594,0.9850,0.0170,-0.0094,0.1714,1.735,-1.391,199.717,0.215,-1.564,2.111,0.000,0.000,0.000,-8.355,-0.612,2.111,-0.926,0.125,0.126,0.07,0.28,1,0
39847,0.016,0.030,1.015,0.621,-0.051,1.248,0.9850,0.0168,-0.0076,0.1715,1.742,-1.186,199.740,0.215,-1.564,2.111,0.000,0.000,0.000,-8.630,-1.241,2.111,-0.940,0.058,0.009,0.08,0.29,1,0
40264,0.014,0.035,1.018,1.655,1.931,1.044,0.9846,0.0171,-0.0038,0.1740,1.856,-0.769,200.034,0.215,-1.564,1.760,0.000,0.000,0.000,-8.985,-2.661,1.760,-0.969,-0.186,-0.091,0.13,0.05,1,0
40285,0.010,0.033,1.017,0.232,1.180,1.499,0.9845,0.0179,-0.0038,0.1742,1.943,-0.782,200.056,0.215,-1.564,1.760,0.000,0.000,0.000,-9.695,-2.649,1.760,-0.949,-0.239,-0.109,0.13,0.04,1,0
40303,0.011,0.032,1.015,-0.425,1.095,1.586,0.9845,0.0184,-0.0041,0.1744,1.996,-0.827,200.074,0.215,-1.564,1.760,0.000,0.000,0.000,-9.899,-2.808,1.760,-0.954,-0.217,-0.094,0.13,0.03,1,0
40318,0.017,0.034,1.007,1.228,-1.544,1.196,0.9845,0.0188,-0.0043,0.1746,2.039,-0.866,200.094,0.215,-1.564,1.760,0.000,0.000,0.000,-10.108,-2.617,1.760,-0.962,-0.164,-0.085,0.13,-0.04,1,0
40340,0.015,0.037,1.009,1.302,-0.783,0.778,0.9844,0.0195,-0.0041,0.1747,2.114,-0.853,200.113,0.215,-1.564,1.760,0.000,0.000,0.000,-10.221,-2.577,1.760,-0.970,-0.068,-0.036,0.13,-0.03,1,0
40356,0.013,0.041,1.015,0.553,0.621,0.614,0.9844,0.0196,-0.0039,0.1748,2.137,-0.837,200.118,0.215,-1.564,2.111,0.000,0.000,0.000,-10.605,-2.480,1.760,-0.972,-0.083,-0.028,0.13,-0.03,1,0
40567,0.014,0.034,1.010,2.690,-0.444,0.988,0.9843,0.0193,-0.0048,0.1756,2.080,-0.924,200.211,0.215,-1.564,2.111,0.000,0.000,0.000,-10.362,-2.111,2.111,-0.881,0.159,0.000,0.08,0.06,1,0
40588,0.016,0.038,1.012,0.399,0.166,1.091,0.9842,0.0207,-0.0050,0.1757,2.233,-0.975,200.222,0.215,-1.564,2.111,0.000,0.000,0.000,-10.975,-2.119,2.111,-0.905,0.037,-0.012,0.08,0.02,1,0
40606,0.021,0.048,1.014,-0.585,-0.101,-0.065,0.9842,0.0215,-0.0055,0.1757,2.312,-1.055,200.227,0.215,-1.564,1.760,0.000,0.000,0.000,-11.523,-1.923,2.111,-0.912,0.003,0.020,0.08,0.02,1,0
40624,0.016,0.040,1.014,-1.832,0.065,0.733,0.9842,0.0219,-0.0052,0.1758,2.365,-1.033,200.233,0.215,-1.564,1.760,0.000,0.000,0.000,-12.039,-1.732,1.760,-0.921,-0.011,0.014,0.09,0.07,1,0
40638,0.018,0.040,1.013,-0.387,-0.518,0.267,0.9842,0.0217,-0.0050,0.1758,2.351,-0.999,200.238,0.215,-1.564,1.760,0.000,0.000,0.000,-12.110,-1.850,1.760,-0.931,-0.011,0.001,0.09,0.48,1,0
40655,0.021,0.047,1.013,1.834,0.258,-0.607,0.9842,0.0222,-0.0050,0.1758,2.404,-1.013,200.237,0.215,-1.564,1.760,0.000,0.000,0.000,-11.978,-2.014,1.760,-0.942,-0.054,0.043,0.10,0.46,1,0
40674,0.016,0.041,1.016,0.625,0.007,-0.302,0.9842,0.0227,-0.0048,0.1758,2.461,-0.994,200.229,0.215,-1.564,1.760,0.000,0.000,0.000,-12.648,-1.957,1.760,-0.952,-0.076,0.105,0.11,0.43,1,0
40695,0.019,0.049,1.011,-1.419,1.038,-0.575,0.9841,0.0238,-0.0048,0.1756,2.592,-1.024,200.215,0.215,-1.564,1.760,0.000,0.000,0.000,-13.052,-1.930,1.760,-0.959,-0.067,0.146,0.12,0.39,1,0
40707,0.018,0.048,1.011,-1.959,1.386,-0.508,0.9842,0.0239,-0.0048,0.1756,2.599,-1.027,200.206,0.215,-1.564,1.760,0.000,0.000,0.000,-13.012,-2.022,1.760,-0.946,-0.064,0.152,0.12,0.39,1,0
40728,0.018,0.042,1.009,0.294,-1.119,-0.848,0.9842,0.0231,-0.0045,0.1755,2.515,-0.976,200.195,0.215,-1.564,1.760,0.000,0.000,0.000,-13.287,-1.998,1.760,-0.951,-0.037,0.146,0.12,0.17,1,0
40740,0.019,0.045,1.008,-0.829,0.039,-0.717,0.9842,0.0235,-0.0050,0.1754,2.548,-1.038,200.187,0.215,-1.564,1.760,0.000,0.000,0.000,-13.029,-1.932,1.760,-0.955,-0.010,0.160,0.12,0.16,1,0
40758,0.018,0.048,1.010,0.573,-1.287,-1.823,0.9843,0.0230,-0.0046,0.1752,2.500,-0.984,200.160,0.215,-1.564,1.760,0.000,0.000,0.000,-12.910,-1.906,1.760,-0.963,0.104,0.222,0.12,0.12,1,0
40774,0.018,0.051,1.010,-1.123,-0.689,-1.909,0.9843,0.0231,-0.0042,0.1749,2.527,-0.934,200.133,0.215,-1.564,1.760,0.000,0.000,0.000,-12.675,-2.235,1.760,-0.966,0.122,0.261,0.12,-0.12,1,0
40787,0.018,0.045,1.009,-1.335,-1.194,-1.610,0.9843,0.0231,-0.0044,0.1748,2.516,-0.961,200.118,0.215,-1.564,1.760,0.000,0.000,0.000,-12.946,-2.180,1.760,-0.945,0.109,0.254,0.12,-0.12,1,0
40806,0.017,0.048,1.009,-1.200,-1.362,-1.402,0.9844,0.0232,-0.0045,0.1746,2.530,-0.976,200.095,0.215,-1.564,1.760,0.000,0.000,0.000,-13.166,-1.912,1.760,-0.936,0.136,0.238,0.12,-0.11,1,0
40827,0.015,0.040,1.013,-0.785,-1.325,-0.636,0.9844,0.0225,-0.0040,0.1744,2.463,-0.896,200.072,0.215,-1.564,2.111,0.000,0.000,0.000,-12.834,-2.311,2.111,-0.941,0.112,0.185,0.11,-0.13,1,0
40834,0.015,0.041,1.011,0.232,-1.875,-0.781,0.9844,0.0229,-0.0041,0.1743,2.503,-0.922,200.063,0.215,-1.564,2.111,0.000,0.000,0.000,-12.563,-2.316,2.111,-0.946,0.141,0.195,0.11,-0.30,1,0
40846,0.015,0.039,1.013,0.325,-1.849,-0.848,0.9844,0.0221,-0.0043,0.1743,2.408,-0.931,200.058,0.215,-1.564,2.111,0.000,0.000,0.000,-12.365,-2.201,2.111,-0.951,0.162,0.195,0.11,-0.30,1,0
40866,0.020,0.045,1.011,-2.872,-0.256,-1.500,0.9845,0.0227,-0.0054,0.1740,2.451,-1.060,200.023,0.215,-1.564,2.111,0.000,0.000,0.000,-12.225,-1.895,2.111,-0.936,0.183,0.255,0.10,-0.29,1,0
41334,0.022,0.040,1.018,-0.008,0.957,-0.035,0.9847,0.0220,-0.0072,0.1726,2.346,-1.248,199.855,0.215,-1.564,2.111,0.000,0.000,0.000,-12.017,-1.078,2.111,-0.996,0.078,0.224,0.21,-0.05,1,0
41348,0.023,0.045,1.015,-0.841,1.142,-1.249,0.9848,0.0222,-0.0068,0.1724,2.369,-1.203,199.832,0.215,-1.564,2.111,0.000,0.000,0.000,-11.806,-1.311,2.111,-0.997,0.100,0.291,0.21,-0.21,1,0
41366,0.020,0.038,1.013,-1.068,0.394,-0.419,0.9848,0.0217,-0.0070,0.1723,2.314,-1.217,199.828,0.215,-1.564,2.111,0.000,0.000,0.000,-11.991,-1.158,2.111,-0.985,0.069,0.236,0.21,-0.21,1,0
41615,0.015,0.029,1.012,0.754,-0.448,1.278,0.9850,0.0165,-0.0059,0.1719,1.749,-0.989,199.782,0.215,-1.564,2.111,0.000,0.000,0.000,-8.715,-1.912,2.111,-0.977,-0.027,-0.067,0.23,-0.35,1,0
41635,0.022,0.037,1.015,-0.024,0.305,1.315,0.9849,0.0180,-0.0061,0.1720,1.911,-1.042,199.793,0.215,-1.564,2.111,0.000,0.000,0.000,-9.388,-1.878,2.111,-0.981,-0.045,0.012,0.22,-0.33,1,0
41656,0.020,0.034,1.011,-0.444,-0.816,0.058,0.9849,0.0173,-0.0065,0.1722,1.824,-1.071,199.821,0.215,-1.564,2.111,0.000,0.000,0.000,-8.859,-1.757,2.111,-0.985,0.046,0.014,0.22,-0.31,1,0
41668,0.024,0.040,1.013,-1.228,0.140,0.106,0.9849,0.0181,-0.0069,0.1722,1.912,-1.135,199.818,0.215,-1.564,2.111,0.000,0.000,0.000,-9.188,-1.629,2.111,-0.977,0.034,0.101,0.21,-0.31,1,0
41686,0.020,0.032,1.014,-1.381,0.402,0.953,0.9848,0.0183,-0.0074,0.1723,1.915,-1.195,199.829,0.215,-1.564,2.111,0.000,0.000,0.000,-9.654,-1.412,2.111,-0.973,-0.010,0.075,0.21,-0.18,1,0
41698,0.021,0.036,1.011,-0.122,-0.612,-0.647,0.9849,0.0179,-0.0069,0.1723,1.889,-1.137,199.829,0.215,-1.564,2.111,0.000,0.000,0.000,-9.107,-1.547,2.111,-0.977,0.071,0.152,0.21,-0.17,1,0
41716,0.020,0.033,1.013,-0.504,0.503,0.807,0.9848,0.0188,-0.0074,0.1723,1.977,-1.211,199.829,0.215,-1.564,2.111,0.000,0.000,0.000,-10.114,-1.225,2.111,-0.981,0.044,0.133,0.21,-0.16,1,0
41735,0.018,0.024,1.014,0.428,-0.771,-0.693,0.9849,0.0173,-0.0067,0.1723,1.822,-1.098,199.833,0.215,-1.564,2.111,0.000,0.000,0.000,-9.213,-1.598,2.111,-0.984,0.088,0.157,0.21,-0.12,1,0
41754,0.019,0.034,1.009,5.267,-0.830,-0.018,0.9848,0.0184,-0.0066,0.1723,1.935,-1.112,199.828,0.215,-1.564,2.111,0.000,0.000,0.000,-9.319,-1.636,2.111,-0.986,0.137,0.164,0.21,-0.12,1,0
41768,0.019,0.036,1.009,-10.105,1.100,1.331,0.9848,0.0189,-0.0061,0.1725,2.016,-1.067,199.856,0.215,-1.564,2.287,0.000,0.000,0.000,-10.074,-1.796,2.287,-0.777,0.026,0.013,0.21,0.23,1,0
41788,0.022,0.057,1.009,-30.615,0.838,-1.007,0.9849,0.0171,-0.0065,0.1724,1.801,-1.067,199.838,0.215,-1.564,2.287,0.000,0.000,0.000,-9.612,-1.748,2.287,-0.394,-0.093,0.205,0.22,0.22,1,0
41804,0.018,0.048,1.005,-31.653,-2.589,-2.866,0.9849,0.0142,-0.0070,0.1721,1.464,-1.074,199.810,0.215,-1.564,2.287,0.000,0.000,0.000,-7.422,-1.735,2.287,-0.186,-0.003,0.311,0.22,0.21,1,0
41818,0.013,0.041,1.007,-25.440,-4.071,-3.130,0.9850,0.0124,-0.0075,0.1717,1.249,-1.088,199.764,0.215,-1.564,2.287,0.000,0.000,0.000,-6.118,-1.663,2.287,-0.057,0.112,0.390,0.22,0.16,1,0
41844,0.008,0.027,1.001,-3.744,-6.639,-3.558,0.9852,0.0109,-0.0074,0.1710,1.086,-1.046,199.687,0.215,-1.564,2.639,0.000,0.000,0.000,-4.974,-1.701,2.639,-0.238,0.289,0.488,0.23,0.16,1,0
41867,0.007,0.013,0.998,4.283,-6.068,-1.691,0.9853,0.0109,-0.0062,0.1703,1.106,-0.915,199.608,0.215,-1.564,2.639,0.000,0.000,0.000,-4.918,-2.166,2.639,-0.425,0.389,0.433,0.22,0.09,1,0
42307,0.105,0.068,1.011,6.844,-6.855,9.490,0.9717,0.0264,-0.0526,0.2287,1.572,-6.564,206.398,0.215,-1.564,2.287,0.000,0.000,0.000,-7.008,17.358,2.287,-0.649,0.510,-0.085,0.18,-0.00,1,0
42327,0.122,0.103,0.990,3.933,-4.794,2.614,0.9714,0.0294,-0.0529,0.2296,1.897,-6.677,206.482,0.215,-1.564,2.287,0.000,0.000,0.000,-8.848,17.724,2.287,-0.713,0.497,0.114,0.18,0.03,1,0
42340,0.139,0.126,0.980,-1.716,-2.942,-0.811,0.9713,0.0309,-0.0532,0.2295,2.057,-6.751,206.470,0.215,-1.564,2.287,0.000,0.000,0.000,-9.677,17.922,2.287,-0.671,0.392,0.230,0.19,0.29,1,0
42363,0.147,0.115,0.981,-2.803,-0.019,-4.058,0.9714,0.0324,-0.0537,0.2289,2.215,-6.842,206.389,0.215,-1.564,2.639,0.000,0.000,0.000,-10.775,18.298,2.287,-0.599,0.262,0.371,0.19,0.28,1,0
42379,0.156,0.106,0.987,3.388,0.167,-5.493,0.9715,0.0345,-0.0541,0.2281,2.444,-6.943,206.275,0.215,-1.564,2.639,0.000,0.000,0.000,-11.796,18.615,2.639,-0.666,0.313,0.476,0.19,0.22,1,0
42599,0.125,0.100,0.968,1.619,6.558,-4.536,0.9720,0.0393,-0.0501,0.2264,3.104,-6.613,206.040,0.215,-1.564,2.639,0.000,0.000,0.000,-15.811,17.687,2.639,-0.887,-0.100,0.506,0.22,0.46,1,0
42616,0.142,0.118,0.954,-0.901,4.830,-4.622,0.9721,0.0410,-0.0493,0.2255,3.320,-6.565,205.931,0.215,-1.564,2.287,0.000,0.000,0.000,-16.990,17.479,2.287,-0.904,0.038,0.569,0.23,0.44,1,0
42638,0.146,0.110,0.951,-1.974,5.222,-4.953,0.9723,0.0425,-0.0491,0.2246,3.495,-6.579,205.818,0.215,-1.564,2.287,0.000,0.000,0.000,-17.979,17.464,2.287,-0.922,0.207,0.611,0.23,0.39,1,0
42665,0.154,0.102,0.964,-1.836,3.263,-5.702,0.9724,0.0444,-0.0495,0.2235,3.704,-6.671,205.670,0.215,-1.564,2.287,0.000,0.000,0.000,-19.092,17.688,2.287,-0.939,0.378,0.672,0.24,0.11,1,0
42686,0.141,0.057,1.002,-1.957,4.465,-5.339,0.9726,0.0452,-0.0506,0.2224,3.772,-6.809,205.536,0.215,-1.564,2.639,0.000,0.000,0.000,-19.886,18.264,2.639,-0.952,0.489,0.700,0.24,0.10,1,0
42704,0.113,0.021,1.016,-3.695,7.295,-3.347,0.9728,0.0435,-0.0508,0.2219,3.581,-6.788,205.482,0.215,-1.564,2.639,0.000,0.000,0.000,-19.507,18.414,2.639,-0.958,0.367,0.551,0.25,0.14,1,0
42726,0.096,0.016,1.014,-3.029,4.506,-0.578,0.9730,0.0406,-0.0497,0.2216,3.289,-6.591,205.475,0.215,-1.564,2.639,0.000,0.000,0.000,-17.768,17.830,2.639,-0.842,0.210,0.244,0.26,0.50,1,0
42738,0.097,0.039,0.994,0.470,0.731,1.683,0.9731,0.0388,-0.0486,0.2218,3.114,-6.415,205.507,0.215,-1.564,2.639,0.000,0.000,0.000,-16.457,17.189,2.287,-0.841,0.334,0.037,0.26,0.47,1,0
42756,0.097,0.039,0.994,0.470,0.731,1.683,0.9731,0.0388,-0.0486,0.2218,3.114,-6.415,205.507,0.215,-1.564,2.639,0.000,0.000,0.000,-16.457,17.189,2.287,-0.841,0.334,0.037,0.26,0.47,1,0
42768,0.107,0.029,1.008,5.217,-2.132,3.248,0.9728,0.0401,-0.0499,0.2224,3.216,-6.603,205.573,0.215,-1.564,2.639,0.000,0.000,0.000,-16.843,17.488,2.639,-0.880,0.498,-0.218,0.28,0.45,1,0
42786,0.089,0.008,1.019,-2.488,-1.108,2.513,0.9728,0.0382,-0.0497,0.2230,3.004,-6.531,205.653,0.215,-1.564,2.639,0.000,0.000,0.000,-15.991,17.448,2.639,-0.736,0.453,-0.276,0.28,0.39,1,0
42800,0.110,0.048,0.991,-3.971,-3.418,1.418,0.9728,0.0365,-0.0493,0.2233,2.824,-6.446,205.691,0.215,-1.564,2.639,0.000,0.000,0.000,-15.210,17.251,2.639,-0.529,0.475,-0.182,0.28,0.03,1,0
42815,0.119,0.042,0.999,-0.213,-4.512,1.703,0.9727,0.0371,-0.0506,0.2234,2.862,-6.601,205.699,0.215,-1.564,2.639,0.000,0.000,0.000,-14.853,17.405,2.639,-0.557,0.535,-0.084,0.28,0.03,1,0
42834,0.101,0.017,1.023,-2.751,-1.442,1.907,0.9727,0.0358,-0.0508,0.2236,2.710,-6.590,205.737,0.215,-1.564,2.639,0.000,0.000,0.000,-14.508,17.649,2.639,-0.602,0.483,-0.086,0.28,0.03,1,0
42848,0.116,0.051,0.999,0.077,-1.715,0.402,0.9727,0.0343,-0.0499,0.2238,2.565,-6.454,205.769,0.215,-1.564,2.639,0.000,0.000,0.000,-13.047,17.134,2.639,-0.573,0.327,0.023,0.29,0.10,1,0
42868,0.086,0.006,1.036,0.695,4.943,0.588,0.9727,0.0343,-0.0504,0.2239,2.550,-6.509,205.783,0.215,-1.564,2.639,0.000,0.000,0.000,-13.336,17.429,2.639,-0.651,0.289,0.120,0.31,0.72,1,0
42878,0.088,0.010,1.036,-0.035,3.810,0.036,0.9727,0.0336,-0.0498,0.2240,2.479,-6.423,205.792,0.215,-1.564,2.639,0.000,0.000,0.000,-12.935,17.210,2.639,-0.642,0.189,0.145,0.31,0.68,1,0
42899,0.100,0.008,1.023,3.296,2.504,-0.384,0.9728,0.0337,-0.0501,0.2238,2.492,-6.463,205.772,0.215,-1.564,2.639,0.000,0.000,0.000,-12.799,17.077,2.639,-0.643,0.182,0.283,0.32,0.61,1,0
43360,0.084,-0.293,0.999,-1.426,6.659,-0.398,0.9742,-0.0060,-0.0432,0.2214,-1.777,-4.673,205.675,0.215,-1.564,2.639,0.000,0.000,0.000,10.457,10.909,2.639,0.211,-0.073,0.255,0.38,0.11,1,0
43380,0.113,-0.298,0.988,0.525,6.563,-0.817,0.9742,-0.0074,-0.0431,0.2212,-1.924,-4.628,205.663,0.215,-1.564,2.639,0.000,0.000,0.000,11.640,10.746,2.639,0.050,-0.107,0.226,0.38,0.19,1,0
43408,0.096,-0.267,0.976,-5.373,4.428,0.486,0.9742,-0.0099,-0.0434,0.2212,-2.210,-4.596,205.669,0.215,-1.564,2.639,0.000,0.000,0.000,12.987,10.576,2.815,0.034,0.043,0.172,0.39,0.18,1,0
43663,0.138,-0.378,0.978,9.981,1.162,-2.552,0.9734,-0.0342,-0.0490,0.2212,-5.080,-4.606,205.806,0.215,-1.564,2.111,0.000,0.000,0.000,29.519,10.603,2.111,0.097,0.114,0.347,0.47,0.08,1,0
43686,0.096,-0.392,1.008,8.377,-1.200,1.192,0.9734,-0.0344,-0.0491,0.2212,-5.106,-4.605,205.812,0.215,-1.564,2.111,0.000,0.000,0.000,29.560,10.606,2.111,0.114,0.192,0.179,0.47,0.09,1,0
43704,0.190,-0.422,0.997,-2.262,0.663,0.104,0.9731,-0.0371,-0.0500,0.2216,-5.429,-4.638,205.877,0.215,-1.564,2.111,0.000,0.000,0.000,31.334,10.703,2.111,0.319,0.158,-0.011,0.47,0.17,1,0
43724,0.161,-0.449,1.004,2.369,1.972,0.201,0.9730,-0.0391,-0.0507,0.2218,-5.673,-4.666,205.909,0.215,-1.564,2.111,0.000,0.000,0.000,32.653,10.800,2.111,0.386,0.192,0.046,0.48,0.16,1,0
43740,0.123,-0.481,1.010,7.869,-2.901,-0.298,0.9729,-0.0398,-0.0510,0.2218,-5.766,-4.684,205.918,0.215,-1.564,2.111,0.000,0.000,0.000,33.182,10.844,2.111,0.367,0.221,0.089,0.48,0.18,1,0
43759,0.122,-0.389,0.999,3.676,-4.607,-1.607,0.9729,-0.0411,-0.0519,0.2217,-5.936,-4.743,205.924,0.215,-1.564,2.111,0.000,0.000,0.000,33.901,10.980,2.111,0.463,0.278,0.142,0.49,0.42,1,0
43775,0.099,-0.342,1.017,-1.408,-0.884,0.222,0.9728,-0.0427,-0.0525,0.2216,-6.131,-4.774,205.916,0.215,-1.564,2.111,0.000,0.000,0.000,35.105,11.171,2.111,0.534,0.246,0.196,0.50,0.40,1,0
43795,0.117,-0.306,0.984,4.522,-0.839,0.492,0.9726,-0.0449,-0.0533,0.2216,-6.387,-4.802,205.936,0.215,-1.564,2.111,0.000,0.000,0.000,36.748,11.273,2.111,0.584,0.194,0.091,0.50,0.38,1,0
43818,0.092,-0.239,1.019,6.058,6.950,3.320,0.9725,-0.0459,-0.0531,0.2219,-6.506,-4.753,205.978,0.215,-1.564,2.111,0.000,0.000,0.000,37.362,11.179,2.111,0.513,0.045,-0.045,0.51,0.37,1,0
43836,0.077,-0.226,1.022,12.781,2.753,2.344,0.9725,-0.0460,-0.0529,0.2223,-6.514,-4.728,206.017,0.215,-1.564,2.111,0.000,0.000,0.000,37.552,11.070,2.111,0.376,0.060,-0.027,0.52,0.37,1,0
43852,0.099,-0.168,0.992,10.051,-3.866,-0.304,0.9724,-0.0462,-0.0532,0.2224,-6.538,-4.762,206.032,0.215,-1.564,2.111,0.000,0.000,0.000,37.664,11.149,2.111,0.437,0.038,0.097,0.52,0.36,1,0
43867,0.074,-0.145,1.014,0.947,2.481,-0.638,0.9724,-0.0470,-0.0535,0.2223,-6.634,-4.767,206.033,0.215,-1.564,2.111,0.000,0.000,0.000,37.852,11.234,2.111,0.511,0.061,0.184,0.53,0.36,1,0
43884,0.097,-0.105,0.990,-2.238,1.071,-0.865,0.9724,-0.0462,-0.0542,0.2220,-6.563,-4.872,205.997,0.215,-1.564,2.111,0.000,0.000,0.000,38.110,11.282,2.111,0.576,0.105,0.268,0.53,0.31,1,0
43900,0.108,-0.059,0.984,-3.780,2.617,-0.466,0.9725,-0.0463,-0.0532,0.2219,-6.547,-4.758,205.979,0.215,-1.564,2.111,0.000,0.000,0.000,37.957,11.324,2.111,0.653,0.016,0.099,0.53,0.06,1,0
43919,0.067,-0.104,1.024,4.166,3.649,2.261,0.9726,-0.0443,-0.0528,0.2220,-6.315,-4.760,205.979,0.215,-1.564,2.111,0.000,0.000,0.000,36.888,11.228,2.111,0.470,0.118,-0.023,0.53,0.06,1,0
44338,0.096,0.035,1.009,-2.171,0.639,-3.556,0.9756,0.0037,-0.0413,0.2155,-0.608,-4.715,204.940,0.215,-1.564,2.111,0.000,0.000,0.000,4.888,10.988,2.111,-0.045,0.238,0.280,0.33,-0.42,1,0
44360,0.094,0.033,1.011,-1.793,1.343,-3.406,0.9757,0.0052,-0.0411,0.2149,-0.428,-4.728,204.861,0.215,-1.564,2.111,0.000,0.000,0.000,4.008,11.013,2.111,-0.111,0.256,0.294,0.33,-0.08,1,0
44382,0.084,0.026,1.020,-1.777,3.380,-1.777,0.9759,0.0071,-0.0406,0.2143,-0.204,-4.726,204.783,0.215,-1.564,2.111,0.000,0.000,0.000,2.932,11.035,2.111,-0.237,0.272,0.222,0.33,-0.08,1,0
44399,0.089,0.032,1.019,-0.205,2.500,-1.956,0.9760,0.0088,-0.0402,0.2140,-0.005,-4.714,204.732,0.215,-1.564,2.111,0.000,0.000,0.000,1.611,11.001,2.111,-0.347,0.271,0.142,0.33,-0.08,1,0
44423,0.086,0.025,1.015,1.073,2.345,-1.162,0.9761,0.0114,-0.0394,0.2135,0.311,-4.686,204.669,0.215,-1.564,2.111,0.000,0.000,0.000,-0.264,10.928,2.111,-0.491,0.255,0.068,0.33,-0.06,1,0
44634,0.076,0.020,1.017,-7.085,5.840,-5.870,0.9778,0.0183,-0.0339,0.2058,1.258,-4.235,203.727,0.215,-1.564,2.111,0.000,0.000,0.000,-6.021,9.355,2.111,-0.338,0.143,0.675,0.27,0.52,1,0
44646,0.075,0.019,1.015,-5.086,4.154,-6.130,0.9779,0.0174,-0.0338,0.2055,1.160,-4.206,203.696,0.215,-1.564,2.111,0.000,0.000,0.000,-6.021,9.355,2.111,-0.332,0.146,0.656,0.27,0.52,1,0
44667,0.073,0.012,1.007,-0.509,5.398,-4.970,0.9782,0.0147,-0.0337,0.2043,0.865,-4.126,203.563,0.215,-1.564,2.111,0.000,0.000,0.000,-4.214,9.156,2.111,-0.372,-0.014,0.495,0.27,0.42,1,0
44676,0.073,0.012,1.007,-0.509,5.398,-4.970,0.9782,0.0144,-0.0337,0.2042,0.805,-4.100,203.540,0.215,-1.564,2.111,0.000,0.000,0.000,-3.564,8.971,2.111,-0.409,-0.020,0.451,0.27,-0.21,1,0
44688,0.070,0.010,1.008,2.435,5.467,-3.887,0.9784,0.0131,-0.0329,0.2037,0.698,-3.994,203.503,0.215,-1.564,2.111,0.000,0.000,0.000,-2.967,8.653,2.111,-0.476,0.043,0.343,0.27,-0.21,1,0
44707,0.062,0.003,1.017,5.317,4.153,-2.502,0.9785,0.0119,-0.0312,0.2033,0.606,-3.778,203.455,0.215,-1.564,2.111,0.000,0.000,0.000,-2.329,7.961,2.111,-0.572,0.134,0.176,0.27,-0.20,1,0
44734,0.065,0.008,1.012,2.797,4.554,-1.577,0.9787,0.0122,-0.0305,0.2028,0.667,-3.703,203.398,0.215,-1.564,2.287,0.000,0.000,0.000,-2.704,7.524,2.287,-0.598,0.151,0.033,0.26,-0.44,1,0
44748,0.064,0.016,1.006,3.168,3.183,-2.326,0.9787,0.0125,-0.0299,0.2027,0.703,-3.649,203.382,0.215,-1.564,2.287,0.000,0.000,0.000,-2.557,7.299,2.287,-0.547,0.182,0.033,0.25,-0.44,1,0
44760,0.063,0.021,1.005,0.912,2.327,-2.489,0.9788,0.0134,-0.0288,0.2024,0.839,-3.547,203.337,0.215,-1.564,2.639,0.000,0.000,0.000,-2.811,7.093,2.287,-0.429,0.237,0.061,0.24,-0.42,1,0
44786,0.055,0.015,1.005,0.531,-0.475,-1.861,0.9789,0.0135,-0.0269,0.2019,0.893,-3.331,203.287,0.215,-1.564,2.639,0.000,0.000,0.000,-3.881,6.306,2.639,-0.352,0.373,0.089,0.24,-0.37,1,0
44812,0.054,0.017,1.007,-1.465,-1.579,-1.817,0.9791,0.0142,-0.0254,0.2014,1.009,-3.178,203.219,0.215,-1.564,2.287,0.000,0.000,0.000,-4.433,5.633,2.287,-0.333,0.527,0.129,0.24,-0.02,1,0
44828,0.058,0.022,1.005,-3.019,-2.392,-2.246,0.9791,0.0151,-0.0255,0.2011,1.110,-3.210,203.181,0.215,-1.564,2.287,0.000,0.000,0.000,-4.728,5.599,2.287,-0.325,0.585,0.150,0.24,-0.02,1,0
44848,0.058,0.020,1.006,-4.212,-3.101,-2.626,0.9792,0.0155,-0.0264,0.2006,1.138,-3.325,203.125,0.215,-1.564,2.287,0.000,0.000,0.000,-5.468,5.938,2.287,-0.242,0.650,0.215,0.24,-0.02,1,0
44875,0.064,0.022,1.007,-7.401,-3.540,-4.210,0.9793,0.0157,-0.0278,0.1997,1.133,-3.479,203.016,0.215,-1.564,2.111,0.000,0.000,0.000,-5.143,6.591,2.111,-0.030,0.705,0.347,0.23,-0.30,1,0
44888,0.063,0.020,1.006,-5.134,-4.858,-3.871,0.9794,0.0152,-0.0282,0.1993,1.069,-3.512,202.971,0.215,-1.564,2.111,0.000,0.000,0.000,-4.702,6.789,2.111,-0.049,0.731,0.360,0.23,-0.30,1,0
44906,0.067,0.017,1.009,-5.005,-3.586,-4.318,0.9795,0.0141,-0.0299,0.1986,0.901,-3.675,202.895,0.215,-1.564,2.111,0.000,0.000,0.000,-3.898,7.060,2.111,-0.095,0.731,0.389,0.22,-0.28,1,0
44925,0.071,0.012,1.013,-4.564,-2.702,-3.975,0.9796,0.0125,-0.0315,0.1980,0.696,-3.820,202.835,0.215,-1.564,2.111,0.000,0.000,0.000,-2.794,7.675,2.111,-0.113,0.668,0.354,0.21,-0.32,1,0
45375,0.069,-0.010,1.020,4.837,3.503,1.822,0.9805,0.0031,-0.0344,0.1937,-0.412,-3.940,202.360,0.215,-1.564,2.111,0.000,0.000,0.000,3.447,8.363,2.111,-0.390,0.121,-0.180,0.09,-0.36,1,0
45395,0.069,-0.002,1.020,2.143,4.300,1.074,0.9805,0.0049,-0.0331,0.1938,-0.189,-3.833,202.363,0.215,-1.564,2.111,0.000,0.000,0.000,2.694,7.937,2.111,-0.303,0.065,-0.031,0.09,-0.03,1,0
45408,0.064,-0.002,1.014,2.298,2.944,0.681,0.9805,0.0051,-0.0317,0.1939,-0.132,-3.677,202.375,0.215,-1.564,2.111,0.000,0.000,0.000,2.061,7.775,2.111,-0.290,0.102,-0.036,0.09,-0.03,1,0
45428,0.062,0.004,1.016,1.422,3.274,1.435,0.9805,0.0070,-0.0303,0.1939,0.114,-3.566,202.373,0.215,-1.564,2.111,0.000,0.000,0.000,1.104,7.142,2.111,-0.276,0.108,0.004,0.09,-0.03,1,0
45612,0.060,0.003,1.015,0.787,1.147,-1.008,0.9810,0.0080,-0.0285,0.1920,0.277,-3.382,202.137,0.215,-1.564,2.111,0.000,0.000,0.000,-0.346,6.344,2.111,-0.443,0.379,0.010,0.03,-0.21,1,0
45636,0.061,0.002,1.019,1.520,2.792,1.005,0.9809,0.0082,-0.0292,0.1919,0.281,-3.461,202.132,0.215,-1.564,2.111,0.000,0.000,0.000,-0.583,6.691,2.111,-0.459,0.265,-0.074,0.02,-0.24,1,0
45654,0.059,0.003,1.018,3.382,1.424,-0.271,0.9809,0.0069,-0.0280,0.1921,0.154,-3.304,202.154,0.215,-1.564,2.111,0.000,0.000,0.000,0.327,6.228,2.111,-0.557,0.330,-0.113,0.01,-0.58,1,0
45674,0.061,0.006,1.018,2.175,2.271,0.924,0.9809,0.0084,-0.0283,0.1921,0.320,-3.365,202.150,0.215,-1.564,2.111,0.000,0.000,0.000,-0.126,6.123,2.111,-0.563,0.322,-0.104,0.00,-0.58,1,0
45693,0.058,0.005,1.013,1.955,1.573,0.250,0.9809,0.0074,-0.0275,0.1923,0.228,-3.259,202.181,0.215,-1.564,2.111,0.000,0.000,0.000,0.075,5.905,2.111,-0.503,0.321,-0.123,-0.01,-0.47,1,0
45708,0.060,0.009,1.014,1.290,1.701,1.341,0.9809,0.0092,-0.0276,0.1924,0.422,-3.311,202.182,0.215,-1.564,2.111,0.000,0.000,0.000,-0.626,6.002,2.111,-0.483,0.353,-0.107,-0.01,-0.47,1,0
45726,0.056,0.005,1.014,0.472,1.331,1.617,0.9809,0.0084,-0.0270,0.1926,0.345,-3.218,202.211,0.215,-1.564,2.111,0.000,0.000,0.000,-0.806,5.843,2.111,-0.452,0.384,-0.171,-0.01,-0.03,1,0
45744,0.056,0.010,1.013,0.196,-0.245,0.720,0.9808,0.0093,-0.0261,0.1928,0.472,-3.137,202.224,0.215,-1.564,2.111,0.000,0.000,0.000,-1.303,5.479,2.111,-0.411,0.496,-0.089,-0.01,-0.03,1,0
45760,0.055,0.009,1.012,-1.760,0.571,1.294,0.9808,0.0096,-0.0257,0.1929,0.517,-3.104,202.237,0.215,-1.564,2.111,0.000,0.000,0.000,-1.920,5.535,2.111,-0.359,0.495,-0.081,-0.01,-0.02,1,0
45775,0.052,0.008,1.011,-1.572,0.034,0.847,0.9808,0.0087,-0.0243,0.1930,0.443,-2.929,202.258,0.215,-1.564,2.111,0.000,0.000,0.000,-1.270,4.917,2.111,-0.284,0.465,-0.067,-0.01,0.04,1,0
45799,0.052,0.010,1.010,-1.241,0.233,0.981,0.9808,0.0099,-0.0240,0.1931,0.586,-2.921,202.265,0.215,-1.564,2.111,0.000,0.000,0.000,-2.240,4.867,2.111,-0.316,0.449,-0.008,-0.01,0.04,1,0
45815,0.048,0.006,1.012,-0.361,0.114,1.204,0.9808,0.0082,-0.0232,0.1934,0.406,-2.786,202.295,0.215,-1.564,2.111,0.000,0.000,0.000,-1.272,4.371,2.111,-0.353,0.364,-0.037,-0.01,0.02,1,0
45838,0.050,0.010,1.011,1.831,-1.244,0.764,0.9808,0.0090,-0.0230,0.1935,0.498,-2.789,202.311,0.215,-1.564,2.111,0.000,0.000,0.000,-1.175,4.140,2.111,-0.473,0.464,0.016,-0.01,-0.11,1,0
45852,0.051,0.010,1.011,0.472,-0.167,1.198,0.9807,0.0097,-0.0237,0.1936,0.565,-2.878,202.320,0.215,-1.564,2.111,0.000,0.000,0.000,-1.813,4.389,2.111,-0.507,0.455,0.009,-0.01,-0.11,1,0
45868,0.050,0.008,1.014,0.309,-0.437,0.983,0.9807,0.0085,-0.0233,0.1938,0.442,-2.805,202.350,0.215,-1.564,2.111,0.000,0.000,0.000,-1.450,4.493,2.111,-0.471,0.423,-0.006,-0.02,-0.11,1,0
45894,0.052,0.012,1.013,0.207,0.124,0.792,0.9807,0.0108,-0.0240,0.1940,0.679,-2.937,202.358,0.215,-1.564,2.111,0.000,0.000,0.000,-2.519,4.646,2.111,-0.534,0.465,0.059,-0.01,-0.04,1,0
45918,0.050,0.009,1.017,0.634,0.614,0.352,0.9806,0.0094,-0.0233,0.1941,0.534,-2.823,202.383,0.215,-1.564,2.111,0.000,0.000,0.000,-1.977,4.606,2.111,-0.522,0.334,0.080,-0.00,0.49,1,0
45940,0.051,0.013,1.014,1.705,-0.396,-0.175,0.9806,0.0108,-0.0232,0.1941,0.703,-2.844,202.375,0.215,-1.564,2.111,0.000,0.000,0.000,-2.196,4.295,2.111,-0.606,0.408,0.165,0.01,0.46,1,0
46340,0.044,0.036,1.013,14.614,3.070,-6.443,0.9819,0.0239,-0.0148,0.1874,2.376,-2.185,201.565,0.108,-1.564,1.760,0.000,0.000,0.000,-11.786,2.096,1.760,-0.931,-0.009,0.612,-0.07,-0.27,1,0
46365,0.046,0.049,1.011,-0.787,3.480,-6.302,0.9820,0.0259,-0.0160,0.1862,2.574,-2.349,201.416,0.215,-1.564,2.111,0.000,0.000,0.000,-13.093,2.705,2.111,-0.555,0.168,0.637,-0.06,0.37,1,0
46384,0.041,0.048,1.012,-5.495,0.534,-6.199,0.9822,0.0267,-0.0158,0.1850,2.677,-2.349,201.284,0.215,-1.564,2.111,0.000,0.000,0.000,-13.718,2.806,2.111,-0.270,0.312,0.638,-0.06,0.35,1,0
46399,0.038,0.047,1.005,-4.900,-1.606,-5.228,0.9824,0.0259,-0.0146,0.1842,2.612,-2.188,201.190,0.215,-1.564,2.111,0.000,0.000,0.000,-13.407,2.376,2.111,-0.147,0.415,0.555,-0.05,0.33,1,0
46418,0.032,0.042,1.006,0.098,-2.251,-3.122,0.9826,0.0246,-0.0132,0.1835,2.498,-2.009,201.111,0.215,-1.564,2.111,0.000,0.000,0.000,-12.983,1.787,2.111,-0.283,0.522,0.299,-0.05,0.29,1,0
46434,0.029,0.038,1.006,4.197,-2.938,-2.358,0.9827,0.0242,-0.0127,0.1833,2.457,-1.943,201.086,0.215,-1.564,2.111,0.000,0.000,0.000,-12.645,1.449,2.111,-0.352,0.567,0.174,-0.05,0.29,1,0
46448,0.030,0.036,1.007,12.979,-4.101,-0.975,0.9827,0.0241,-0.0123,0.1830,2.461,-1.887,201.057,0.215,-1.564,0.000,0.000,0.000,0.000,-12.448,1.167,2.111,-0.471,0.646,-0.041,-0.05,0.05,1,0
46662,0.032,0.076,1.014,3.322,2.216,-3.225,0.9823,0.0391,-0.0086,0.1832,4.229,-1.790,201.061,0.215,-1.564,2.111,0.000,0.000,0.000,-22.376,0.864,2.111,-0.442,-0.158,0.308,-0.10,-0.09,1,0
46675,0.031,0.075,1.009,6.087,0.516,-3.038,0.9823,0.0391,-0.0081,0.1828,4.238,-1.733,201.015,0.215,-1.564,2.111,0.000,0.000,0.000,-22.407,0.746,2.111,-0.525,0.009,0.382,-0.10,-0.07,1,0
46687,0.030,0.076,1.009,5.828,0.003,-3.458,0.9824,0.0399,-0.0077,0.1824,4.338,-1.701,200.975,0.215,-1.564,2.111,0.000,0.000,0.000,-22.561,0.524,2.111,-0.579,0.122,0.411,-0.10,-0.07,1,0
46706,0.031,0.083,1.008,3.593,-0.064,-3.666,0.9824,0.0423,-0.0076,0.1818,4.609,-1.731,200.902,0.215,-1.564,2.111,0.000,0.000,0.000,-24.190,0.573,2.111,-0.649,0.232,0.466,-0.10,0.13,1,0
46728,0.029,0.083,1.005,2.950,-1.277,-3.675,0.9825,0.0431,-0.0065,0.1810,4.725,-1.628,200.814,0.215,-1.564,2.111,0.000,0.000,0.000,-25.208,0.382,2.111,-0.725,0.378,0.444,-0.10,0.12,1,0
46743,0.028,0.087,1.002,2.424,-2.167,-3.663,0.9826,0.0443,-0.0062,0.1805,4.869,-1.611,200.749,0.215,-1.564,2.111,0.000,0.000,0.000,-25.670,0.144,2.111,-0.766,0.469,0.432,-0.10,0.10,1,0
46764,0.027,0.091,1.004,0.241,-3.051,-2.233,0.9826,0.0463,-0.0057,0.1799,5.106,-1.593,200.681,0.215,-1.564,2.111,0.000,0.000,0.000,-27.096,0.159,2.111,-0.809,0.553,0.311,-0.10,-0.02,1,0
46782,0.028,0.091,1.002,-0.082,-4.029,-2.036,0.9826,0.0472,-0.0057,0.1796,5.210,-1.610,200.639,0.215,-1.564,2.111,0.000,0.000,0.000,-27.361,-0.064,2.111,-0.837,0.620,0.206,-0.10,-0.02,1,0
46796,0.031,0.087,1.001,-0.603,-4.466,-1.518,0.9827,0.0459,-0.0070,0.1794,5.033,-1.728,200.612,0.215,-1.564,2.111,0.000,0.000,0.000,-27.267,0.384,2.111,-0.862,0.676,0.112,-0.10,-0.05,1,0
46814,0.034,0.090,1.004,-0.471,-4.284,-2.113,0.9827,0.0465,-0.0083,0.1792,5.071,-1.888,200.583,0.215,-1.564,2.111,0.000,0.000,0.000,-26.819,0.780,2.111,-0.877,0.710,0.120,-0.11,-0.05,1,0
46836,0.037,0.092,1.010,-2.426,-4.821,-2.611,0.9827,0.0481,-0.0097,0.1786,5.226,-2.082,200.504,0.215,-1.564,2.111,0.000,0.000,0.000,-27.757,1.670,2.111,-0.908,0.781,0.182,-0.11,-0.29,1,0
46862,0.041,0.092,1.009,-5.713,-3.566,-3.205,0.9828,0.0483,-0.0117,0.1779,5.217,-2.298,200.417,0.215,-1.564,2.111,0.000,0.000,0.000,-28.025,2.263,2.111,-0.925,0.762,0.303,-0.12,-0.24,1,0
46878,0.042,0.089,1.009,-5.807,-3.209,-3.107,0.9829,0.0468,-0.0128,0.1775,5.024,-2.395,200.367,0.215,-1.564,2.111,0.000,0.000,0.000,-27.108,2.776,2.111,-0.935,0.715,0.317,-0.11,0.13,1,0
46896,0.044,0.088,1.012,-4.932,-3.302,-3.028,0.9830,0.0464,-0.0136,0.1770,4.963,-2.477,200.305,0.215,-1.564,2.111,0.000,0.000,0.000,-26.660,3.128,2.111,-0.946,0.710,0.322,-0.11,0.12,1,0
46909,0.045,0.087,1.013,-4.465,-3.004,-2.746,0.9831,0.0460,-0.0143,0.1766,4.902,-2.548,200.261,0.215,-1.564,2.111,0.000,0.000,0.000,-26.326,3.339,2.111,-0.953,0.715,0.288,-0.11,0.12,1,0
46925,0.046,0.085,1.014,-4.103,-2.678,-2.660,0.9832,0.0448,-0.0150,0.1764,4.758,-2.593,200.230,0.215,-1.564,2.111,0.000,0.000,0.000,-25.984,3.466,2.111,-0.958,0.696,0.266,-0.11,0.12,1,0
46938,0.048,0.082,1.014,-3.108,-1.960,-2.776,0.9833,0.0439,-0.0165,0.1760,4.621,-2.747,200.182,0.215,-1.564,2.111,0.000,0.000,0.000,-24.815,3.862,2.111,-0.965,0.620,0.248,-0.11,0.06,1,0
46968,0.050,0.079,1.013,-2.273,-1.000,-1.764,0.9834,0.0424,-0.0175,0.1754,4.437,-2.830,200.112,0.215,-1.564,2.111,0.000,0.000,0.000,-23.812,4.448,2.111,-0.974,0.540,0.178,-0.12,-0.41,1,0
47357,0.050,0.072,1.010,-0.560,0.368,-0.450,0.9841,0.0394,-0.0179,0.1725,4.076,-2.798,199.783,0.215,-1.564,2.111,0.000,0.000,0.000,-21.674,4.312,2.111,-0.967,0.433,0.063,-0.04,0.28,1,0
47372,0.048,0.071,1.010,-1.093,0.549,-0.406,0.9841,0.0387,-0.0172,0.1724,4.029,-2.709,199.777,0.215,-1.564,2.111,0.000,0.000,0.000,-21.358,4.070,2.111,-0.973,0.425,0.059,-0.04,0.20,1,0
47389,0.047,0.070,1.010,-1.241,0.577,-0.157,0.9842,0.0379,-0.0167,0.1724,3.954,-2.633,199.776,0.215,-1.564,2.111,0.000,0.000,0.000,-21.060,3.871,2.111,-0.977,0.391,0.049,-0.04,0.20,1,0
47406,0.045,0.068,1.011,-0.847,0.031,0.423,0.9842,0.0371,-0.0162,0.1724,3.868,-2.560,199.783,0.215,-1.564,2.111,0.000,0.000,0.000,-20.621,3.569,2.111,-0.981,0.388,-0.003,-0.05,-0.36,1,0
47424,0.045,0.068,1.009,-0.089,-0.782,0.578,0.9842,0.0370,-0.0162,0.1725,3.860,-2.559,199.793,0.215,-1.564,2.111,0.000,0.000,0.000,-20.212,3.509,2.111,-0.984,0.462,-0.041,-0.05,-0.34,1,0
47442,0.046,0.069,1.008,-0.473,-0.907,0.589,0.9842,0.0374,-0.0165,0.1725,3.900,-2.605,199.798,0.215,-1.564,2.111,0.000,0.000,0.000,-20.374,3.507,2.111,-0.986,0.510,-0.046,-0.06,-0.32,1,0
47455,0.046,0.069,1.009,-0.975,-0.758,0.394,0.9841,0.0376,-0.0165,0.1726,3.922,-2.607,199.803,0.215,-1.564,2.111,0.000,0.000,0.000,-20.685,3.609,2.111,-0.988,0.533,-0.031,-0.06,-0.31,1,0
47476,0.046,0.071,1.011,-0.966,-0.496,-0.144,0.9841,0.0384,-0.0161,0.1725,4.022,-2.581,199.798,0.215,-1.564,2.111,0.000,0.000,0.000,-21.138,3.545,2.111,-0.990,0.514,0.041,-0.07,-0.32,1,0
47706,0.046,0.069,1.012,-0.277,-1.036,-0.323,0.9844,0.0375,-0.0163,0.1713,3.920,-2.576,199.652,0.215,-1.564,2.111,0.000,0.000,0.000,-20.516,3.569,2.111,-0.999,0.550,0.140,-0.13,-0.04,1,0
47718,0.046,0.068,1.013,-0.102,-1.110,-0.271,0.9844,0.0369,-0.0164,0.1713,3.852,-2.576,199.651,0.215,-1.564,2.111,0.000,0.000,0.000,-20.518,3.596,2.111,-0.999,0.537,0.119,-0.14,-0.08,1,0
47726,0.046,0.068,1.013,0.177,-1.372,-0.386,0.9844,0.0366,-0.0167,0.1712,3.809,-2.606,199.649,0.215,-1.564,2.111,0.000,0.000,0.000,-20.234,3.579,2.111,-0.999,0.544,0.109,-0.14,-0.08,1,0
47756,0.050,0.067,1.011,-0.750,-1.276,-0.601,0.9844,0.0367,-0.0189,0.1711,3.776,-2.849,199.632,0.215,-1.564,2.111,0.000,0.000,0.000,-20.044,4.256,2.111,-0.999,0.602,0.131,-0.15,-0.40,1,0
47773,0.051,0.067,1.011,-1.392,-0.820,-0.850,0.9844,0.0365,-0.0192,0.1710,3.745,-2.882,199.619,0.215,-1.564,2.111,0.000,0.000,0.000,-19.703,4.598,2.111,-1.000,0.609,0.160,-0.15,-0.24,1,0
47796,0.052,0.066,1.012,-1.188,-0.533,-0.649,0.9844,0.0363,-0.0194,0.1709,3.727,-2.905,199.601,0.215,-1.564,2.111,0.000,0.000,0.000,-19.637,4.680,2.111,-1.000,0.588,0.163,-0.13,1.04,1,0
47815,0.052,0.066,1.013,-0.117,-0.656,-0.410,0.9844,0.0363,-0.0197,0.1708,3.718,-2.935,199.590,0.215,-1.564,2.111,0.000,0.000,0.000,-19.478,4.684,2.111,-1.000,0.575,0.133,-0.11,0.99,1,0
47832,0.052,0.066,1.013,0.433,-1.121,-0.330,0.9845,0.0361,-0.0196,0.1707,3.694,-2.915,199.584,0.215,-1.564,2.111,0.000,0.000,0.000,-19.415,4.716,2.111,-1.000,0.606,0.107,-0.10,0.86,1,0
47856,0.052,0.065,1.012,-0.253,-0.935,-0.466,0.9845,0.0362,-0.0200,0.1707,3.699,-2.961,199.573,0.215,-1.564,2.111,0.000,0.000,0.000,-19.545,4.799,2.111,-1.000,0.630,0.109,-0.10,0.08,1,0
47874,0.053,0.065,1.012,-0.545,-0.182,-0.471,0.9845,0.0359,-0.0203,0.1706,3.666,-2.991,199.565,0.215,-1.564,2.111,0.000,0.000,0.000,-19.364,4.980,2.111,-1.000,0.566,0.121,-0.10,0.08,1,0
47887,0.053,0.065,1.013,-0.121,-0.031,-0.356,0.9845,0.0359,-0.0201,0.1705,3.663,-2.966,199.560,0.215,-1.564,2.111,0.000,0.000,0.000,-19.128,4.923,2.111,-1.000,0.523,0.118,-0.09,0.08,1,0
47904,0.052,0.065,1.014,-0.222,-0.128,-0.057,0.9845,0.0359,-0.0195,0.1705,3.676,-2.903,199.556,0.215,-1.564,2.111,0.000,0.000,0.000,-19.191,4.673,2.111,-1.000,0.483,0.088,-0.10,0.04,1,0
47918,0.051,0.065,1.014,-0.398,-0.174,0.107,0.9845,0.0357,-0.0195,0.1705,3.658,-2.899,199.558,0.215,-1.564,2.111,0.000,0.000,0.000,-19.277,4.575,2.111,-1.000,0.468,0.065,-0.10,-0.23,1,0
47935,0.052,0.064,1.013,0.382,-0.167,0.151,0.9845,0.0352,-0.0195,0.1705,3.598,-2.885,199.563,0.215,-1.564,2.111,0.000,0.000,0.000,-18.812,4.454,2.111,-1.000,0.459,0.047,-0.10,-0.22,1,0
47954,0.052,0.065,1.013,0.826,-0.315,0.168,0.9845,0.0360,-0.0195,0.1705,3.690,-2.907,199.560,0.215,-1.564,2.111,0.000,0.000,0.000,-19.235,4.722,2.111,-1.000,0.462,0.045,-0.11,-0.22,1,0
47964,0.052,0.066,1.013,0.374,-0.403,-0.010,0.9845,0.0362,-0.0196,0.1705,3.707,-2.919,199.561,0.215,-1.564,2.111,0.000,0.000,0.000,-19.271,4.612,2.111,-1.000,0.490,0.053,-0.11,-0.21,1,0
47984,0.054,0.067,1.014,-1.796,0.197,-0.785,0.9844,0.0368,-0.0208,0.1705,3.757,-3.067,199.548,0.215,-1.564,2.111,0.000,0.000,0.000,-19.800,5.167,2.111,-1.000,0.497,0.131,-0.11,-0.20,1,0
48408,0.053,0.056,1.012,0.611,-0.689,1.195,0.9851,0.0316,-0.0213,0.1676,3.162,-3.011,199.224,0.215,-1.564,2.111,0.000,0.000,0.000,-16.416,5.081,2.111,-0.965,0.590,-0.119,-0.11,0.28,1,0
48424,0.053,0.058,1.011,-1.387,-0.622,1.357,0.9851,0.0325,-0.0211,0.1677,3.266,-3.006,199.235,0.215,-1.564,2.111,0.000,0.000,0.000,-17.089,5.101,2.111,-0.965,0.579,-0.144,-0.11,0.27,1,0
48438,0.054,0.057,1.011,-1.899,-0.487,1.503,0.9851,0.0319,-0.0215,0.1679,3.196,-3.037,199.257,0.215,-1.564,2.111,0.000,0.000,0.000,-16.784,5.170,2.111,-0.969,0.570,-0.155,-0.10,0.36,1,0
48446,0.053,0.056,1.012,-1.275,-0.471,1.284,0.9851,0.0316,-0.0212,0.1680,3.171,-2.999,199.271,0.215,-1.564,2.111,0.000,0.000,0.000,-16.613,5.087,2.111,-0.972,0.560,-0.143,-0.10,0.36,1,0
48474,0.053,0.056,1.012,0.632,-0.403,1.040,0.9850,0.0316,-0.0211,0.1682,3.161,-2.989,199.296,0.215,-1.564,2.111,0.000,0.000,0.000,-16.425,4.958,2.111,-0.977,0.538,-0.084,-0.09,0.34,1,0
48492,0.054,0.057,1.013,1.285,0.182,0.229,0.9850,0.0320,-0.0216,0.1683,3.202,-3.057,199.311,0.215,-1.564,2.111,0.000,0.000,0.000,-16.668,5.210,2.111,-0.982,0.493,0.021,-0.09,0.29,1,0
48726,0.056,0.054,1.012,-1.289,-0.867,-0.427,0.9851,0.0311,-0.0227,0.1673,3.082,-3.162,199.192,0.215,-1.564,2.111,0.000,0.000,0.000,-15.972,5.466,2.111,-0.989,0.663,0.117,-0.15,-0.36,1,0
48754,0.058,0.053,1.012,-2.545,-0.421,-0.352,0.9851,0.0305,-0.0239,0.1673,2.992,-3.287,199.185,0.215,-1.564,2.111,0.000,0.000,0.000,-15.836,5.926,2.111,-0.991,0.684,0.122,-0.15,-0.35,1,0
48768,0.058,0.052,1.014,-1.712,-0.076,-0.142,0.9852,0.0299,-0.0237,0.1672,2.928,-3.251,199.181,0.215,-1.564,2.111,0.000,0.000,0.000,-15.336,6.007,2.111,-0.992,0.651,0.108,-0.15,-0.27,1,0
48786,0.057,0.051,1.015,-0.089,0.151,0.270,0.9852,0.0297,-0.0235,0.1672,2.904,-3.223,199.182,0.215,-1.564,2.111,0.000,0.000,0.000,-15.015,5.826,2.111,-0.994,0.600,0.066,-0.14,0.27,1,0
48804,0.057,0.051,1.015,1.136,0.305,0.590,0.9852,0.0295,-0.0236,0.1673,2.884,-3.227,199.191,0.215,-1.564,2.111,0.000,0.000,0.000,-14.775,5.743,2.111,-0.994,0.562,0.025,-0.14,0.26,1,0
48824,0.057,0.052,1.014,1.575,0.631,0.758,0.9851,0.0299,-0.0236,0.1674,2.935,-3.235,199.208,0.215,-1.564,2.111,0.000,0.000,0.000,-15.063,5.890,2.111,-0.996,0.509,-0.024,-0.14,0.23,1,0
48835,0.058,0.052,1.013,1.197,0.594,0.803,0.9851,0.0301,-0.0237,0.1675,2.949,-3.254,199.213,0.215,-1.564,2.111,0.000,0.000,0.000,-15.371,5.943,2.111,-0.996,0.506,-0.028,-0.14,0.08,1,0
48852,0.057,0.052,1.012,-0.700,0.781,0.484,0.9851,0.0301,-0.0236,0.1676,2.954,-3.247,199.226,0.215,-1.564,2.111,0.000,0.000,0.000,-15.464,5.856,2.111,-0.997,0.500,-0.007,-0.14,0.08,1,0
48877,0.055,0.051,1.012,-0.516,1.124,0.201,0.9851,0.0296,-0.0226,0.1676,2.913,-3.120,199.236,0.215,-1.564,2.111,0.000,0.000,0.000,-15.112,5.531,2.111,-0.997,0.443,0.065,-0.13,0.11,1,0
48895,0.052,0.051,1.013,0.392,0.604,0.514,0.9852,0.0290,-0.0212,0.1677,2.869,-2.952,199.246,0.215,-1.564,2.111,0.000,0.000,0.000,-14.849,5.008,2.111,-0.998,0.415,0.060,-0.12,0.42,1,0
48912,0.051,0.051,1.012,1.023,-0.062,0.707,0.9852,0.0290,-0.0205,0.1678,2.880,-2.871,199.258,0.215,-1.564,2.111,0.000,0.000,0.000,-14.876,4.561,2.111,-0.998,0.434,0.035,-0.12,0.40,1,0
48924,0.050,0.051,1.011,0.990,-0.277,0.727,0.9852,0.0290,-0.0204,0.1678,2.892,-2.862,199.263,0.215,-1.564,2.111,0.000,0.000,0.000,-14.876,4.561,2.111,-0.998,0.449,0.027,-0.11,0.40,1,0
48943,0.050,0.053,1.010,-0.263,-0.705,0.728,0.9851,0.0297,-0.0202,0.1679,2.971,-2.848,199.276,0.215,-1.564,2.111,0.000,0.000,0.000,-15.511,4.466,2.111,-0.999,0.515,0.019,-0.10,0.38,1,0
48956,0.051,0.052,1.009,-0.778,-1.072,0.602,0.9851,0.0298,-0.0203,0.1680,2.981,-2.868,199.283,0.215,-1.564,2.111,0.000,0.000,0.000,-15.373,4.468,2.111,-0.999,0.562,0.032,-0.10,0.39,1,0
48974,0.051,0.052,1.009,-0.812,-0.967,0.471,0.9851,0.0297,-0.0205,0.1681,2.964,-2.883,199.289,0.215,-1.564,2.111,0.000,0.000,0.000,-15.437,4.588,2.111,-0.999,0.594,0.050,-0.09,0.39,1,0
48988,0.050,0.053,1.011,-0.989,-0.494,0.383,0.9851,0.0302,-0.0202,0.1681,3.024,-2.862,199.293,0.215,-1.564,2.111,0.000,0.000,0.000,-15.854,4.651,2.111,-0.999,0.582,0.075,-0.08,0.58,1,0
49014,0.049,0.054,1.013,-0.451,-0.554,0.286,0.9851,0.0303,-0.0193,0.1681,3.049,-2.763,199.298,0.215,-1.564,2.111,0.000,0.000,0.000,-15.653,4.232,2.111,-0.999,0.526,0.102,-0.07,0.53,1,0
49574,0.056,0.060,1.014,1.144,1.015,-0.753,0.9850,0.0335,-0.0222,0.1681,3.358,-3.152,199.274,0.215,-1.564,2.111,0.000,0.000,0.000,-17.434,5.495,2.111,-1.000,0.460,0.159,-0.03,0.32,1,0
49806,0.047,0.130,1.090,-8.041,11.972,-16.463,0.9872,0.0479,-0.0109,0.1514,5.243,-2.068,197.343,0.215,-1.564,1.408,0.000,0.000,0.000,-27.986,1.907,1.408,-0.540,-0.586,0.900,-0.00,-0.18,1,0
49820,0.040,0.130,1.095,-5.928,13.594,-15.509,0.9875,0.0482,-0.0094,0.1495,5.308,-1.895,197.132,0.215,-1.564,1.408,0.000,0.000,0.000,-28.250,1.431,1.408,-0.601,-0.640,0.830,0.00,0.63,1,0
49846,0.014,0.132,1.107,3.738,17.224,-12.809,0.9880,0.0501,-0.0046,0.1462,5.603,-1.361,196.770,0.215,-1.564,1.760,0.000,0.000,0.000,-29.628,-0.222,1.760,-0.699,-0.729,0.555,0.02,0.59,1,0
49860,-0.002,0.133,1.112,6.147,18.829,-12.039,0.9881,0.0513,-0.0012,0.1448,5.803,-0.989,196.621,0.215,-1.564,2.111,0.000,0.000,0.000,-30.403,-1.058,1.760,-0.739,-0.765,0.413,0.03,0.56,1,0
49885,-0.021,0.139,1.124,4.225,21.063,-12.470,0.9884,0.0530,0.0054,0.1424,6.101,-0.258,196.380,0.215,-1.564,2.111,0.000,0.000,0.000,-32.626,-4.116,2.111,-0.795,-0.815,0.406,0.04,0.50,1,0
49907,-0.030,0.144,1.133,1.798,22.459,-14.518,0.9886,0.0539,0.0111,0.1402,6.293,0.391,196.160,0.215,-1.564,2.111,0.000,0.000,0.000,-33.747,-6.359,2.111,-0.833,-0.849,0.513,0.05,0.47,1,0
49918,-0.032,0.148,1.138,-0.148,22.860,-16.482,0.9887,0.0543,0.0145,0.1386,6.396,0.781,196.004,0.215,-1.564,2.111,0.000,0.000,0.000,-34.240,-7.502,2.111,-0.852,-0.866,0.569,0.05,0.45,1,0
49934,-0.036,0.154,1.142,-5.763,22.480,-20.502,0.9890,0.0547,0.0193,0.1359,6.510,1.331,195.721,0.215,-1.564,2.111,0.000,0.000,0.000,-35.113,-9.892,2.111,-0.865,-0.889,0.641,0.06,0.45,1,0
49956,-0.038,0.159,1.142,-13.137,21.185,-26.469,0.9895,0.0542,0.0237,0.1320,6.525,1.866,195.307,0.215,-1.564,2.111,0.000,0.000,0.000,-35.294,-11.613,2.111,-0.623,-0.911,0.712,0.07,0.43,1,0
49978,-0.031,0.161,1.144,-19.278,19.602,-33.250,0.9902,0.0526,0.0273,0.1266,6.380,2.331,194.706,0.215,-1.564,2.111,0.000,0.000,0.000,-34.754,-13.189,2.111,-0.329,-0.925,0.765,0.08,0.41,1,0
49992,-0.025,0.158,1.143,-22.599,19.707,-36.988,0.9906,0.0511,0.0287,0.1232,6.224,2.538,194.314,0.215,-1.564,2.111,0.000,0.000,0.000,-34.186,-13.833,2.111,-0.177,-0.934,0.792,0.08,0.41,1,0
50007,-0.016,0.153,1.138,-27.974,20.999,-42.067,0.9915,0.0480,0.0306,0.1173,5.879,2.834,193.644,0.215,-1.564,2.111,0.000,0.000,0.000,-32.363,-14.994,2.111,0.019,-0.945,0.826,0.09,0.37,1,0
50024,-0.014,0.147,1.130,-30.465,22.359,-45.200,0.9921,0.0449,0.0321,0.1123,5.534,3.074,193.067,0.215,-1.564,2.111,0.000,0.000,0.000,-31.117,-15.576,2.111,0.148,-0.952,0.849,0.09,0.18,1,0
50044,-0.015,0.139,1.113,-23.884,24.039,-48.909,0.9932,0.0403,0.0348,0.1038,4.978,3.520,191.992,0.215,-1.564,2.111,0.000,0.000,0.000,-27.031,-17.467,2.111,0.141,-0.962,0.882,0.09,0.17,1,0
50066,-0.023,0.136,1.086,-2.754,24.779,-53.491,0.9941,0.0383,0.0383,0.0936,4.795,3.959,190.919,0.215,-1.564,2.111,0.000,0.000,0.000,-25.607,-18.842,2.111,-0.086,-0.970,0.905,0.09,0.10,1,0
50083,-0.028,0.138,1.064,12.531,24.262,-58.452,0.9947,0.0397,0.0410,0.0860,4.953,4.290,190.064,0.215,-1.564,2.111,0.000,0.000,0.000,-26.289,-20.278,2.111,-0.223,-0.974,0.919,0.08,-0.41,1,0
50486,-0.062,-0.076,0.932,-24.793,-9.738,-44.798,0.9825,-0.0092,0.0506,-0.1788,-2.081,5.515,159.272,0.215,-1.564,2.111,0.000,0.000,0.000,11.552,-25.055,2.111,0.358,-0.066,0.194,0.08,-0.32,1,0
50508,-0.050,-0.088,0.912,-24.241,-17.106,-50.821,0.9809,-0.0170,0.0478,-0.1877,-2.952,5.014,158.200,0.215,-1.564,2.111,0.000,0.000,0.000,15.964,-23.670,2.111,0.486,0.146,0.354,0.07,-0.30,1,0
50520,-0.043,-0.093,0.910,-21.691,-19.252,-51.934,0.9801,-0.0203,0.0461,-0.1921,-3.311,4.731,157.686,0.215,-1.564,2.111,0.000,0.000,0.000,18.106,-22.767,2.111,0.535,0.228,0.416,0.08,-0.20,1,0
50534,-0.042,-0.113,0.906,-20.438,-20.385,-52.809,0.9787,-0.0255,0.0430,-0.1991,-3.854,4.249,156.854,0.215,-1.564,2.111,0.000,0.000,0.000,22.345,-20.484,2.111,0.605,0.343,0.504,0.09,0.61,1,0
50556,-0.049,-0.157,0.898,-24.981,-16.508,-53.076,0.9765,-0.0334,0.0402,-0.2089,-4.714,3.706,155.697,0.215,-1.564,2.111,0.000,0.000,0.000,26.200,-18.855,2.111,0.684,0.456,0.602,0.10,0.58,1,0
50575,-0.047,-0.189,0.903,-18.013,-15.693,-48.789,0.9747,-0.0395,0.0385,-0.2165,-5.380,3.324,154.795,0.215,-1.564,2.111,0.000,0.000,0.000,30.521,-17.341,2.111,0.736,0.444,0.638,0.10,0.46,1,0
50600,-0.039,-0.212,0.926,6.893,-13.388,-44.141,0.9724,-0.0438,0.0353,-0.2266,-5.811,2.800,153.625,0.215,-1.564,2.111,0.000,0.000,0.000,33.168,-15.892,2.111,0.409,0.473,0.389,0.10,-0.33,1,0
50819,0.037,-0.180,0.963,-0.666,0.400,-62.554,0.9456,-0.0462,0.0242,-0.3211,-5.909,0.918,142.445,0.215,-1.564,2.111,0.000,0.000,0.000,34.159,-8.984,2.111,-0.030,0.415,0.901,0.09,0.29,1,0
50836,0.038,-0.172,0.953,-28.246,1.182,-65.112,0.9437,-0.0488,0.0242,-0.3263,-6.191,0.791,141.805,0.215,-1.564,2.111,0.000,0.000,0.000,34.402,-8.568,2.111,0.069,0.422,0.911,0.09,0.29,1,0
50854,0.029,-0.183,0.967,-42.192,5.629,-65.088,0.9380,-0.0606,0.0268,-0.3404,-7.574,0.515,140.078,0.215,-1.564,2.111,0.000,0.000,0.000,42.923,-7.310,2.111,0.284,0.112,0.931,0.09,-0.10,1,0
50876,0.013,-0.203,0.960,-5.185,8.571,-60.731,0.9334,-0.0666,0.0286,-0.3516,-8.304,0.370,138.695,0.215,-1.564,2.111,0.000,0.000,0.000,46.928,-6.829,2.111,0.265,-0.110,0.945,0.09,-0.10,1,0
50894,0.001,-0.205,0.959,10.582,9.176,-59.122,0.9299,-0.0673,0.0293,-0.3604,-8.414,0.339,137.608,0.215,-1.564,2.111,0.000,0.000,0.000,48.162,-6.644,2.111,0.076,-0.243,0.947,0.08,-0.11,1,0
50909,-0.005,-0.202,0.944,9.055,8.641,-59.676,0.9272,-0.0673,0.0298,-0.3672,-8.431,0.331,136.768,0.215,-1.564,2.111,0.000,0.000,0.000,48.213,-6.617,2.111,-0.075,-0.296,0.955,0.08,-0.11,1,0
50926,-0.008,-0.200,0.946,4.123,7.363,-61.397,0.9236,-0.0678,0.0307,-0.3761,-8.533,0.322,135.666,0.215,-1.564,2.111,0.000,0.000,0.000,48.621,-6.590,2.111,0.081,-0.239,0.962,0.08,-0.20,1,0
50943,-0.003,-0.197,0.924,1.644,3.136,-61.716,0.9202,-0.0690,0.0312,-0.3840,-8.684,0.248,134.678,0.215,-1.564,2.111,0.000,0.000,0.000,49.587,-6.359,2.111,0.218,-0.054,0.968,0.07,-0.19,1,0
50962,0.018,-0.196,0.923,11.317,-0.186,-63.181,0.9159,-0.0703,0.0308,-0.3941,-8.806,0.053,133.437,0.215,-1.564,2.111,0.000,0.000,0.000,50.390,-5.730,2.111,0.283,0.139,0.974,0.07,-0.19,1,0
50989,0.015,-0.191,0.920,26.078,-6.207,-65.221,0.9102,-0.0693,0.0272,-0.4073,-8.533,-0.397,131.811,0.215,-1.564,2.111,0.000,0.000,0.000,49.528,-4.565,2.111,-0.013,0.338,0.980,0.06,-0.25,1,0
51008,0.026,-0.177,0.927,11.667,-7.499,-67.602,0.9056,-0.0689,0.0244,-0.4179,-8.345,-0.769,130.514,0.215,-1.564,2.111,0.000,0.000,0.000,48.006,-3.322,2.111,0.030,0.459,0.984,0.06,-0.24,1,0
51027,0.047,-0.165,0.930,2.312,-8.441,-69.227,0.9015,-0.0705,0.0221,-0.4265,-8.397,-1.161,129.452,0.215,-1.564,2.111,0.000,0.000,0.000,47.987,-1.774,2.111,0.175,0.540,0.986,0.06,-0.22,1,0
51048,0.065,-0.157,0.929,18.888,-7.495,-68.685,0.8963,-0.0716,0.0182,-0.4373,-8.297,-1.713,128.103,0.215,-1.564,2.111,0.000,0.000,0.000,47.842,0.135,2.111,0.193,0.624,0.989,0.06,-0.17,1,0
51068,0.067,-0.157,0.934,41.774,-8.840,-63.799,0.8909,-0.0689,0.0123,-0.4487,-7.692,-2.291,126.696,0.215,-1.564,2.111,0.000,0.000,0.000,45.298,1.999,2.111,-0.045,0.699,0.975,0.06,0.19,1,0
51085,0.070,-0.136,0.955,48.232,-10.799,-60.711,0.8878,-0.0656,0.0075,-0.4554,-7.098,-2.659,125.855,0.215,-1.564,2.111,0.000,0.000,0.000,43.270,2.887,2.111,-0.171,0.739,0.872,0.07,0.19,1,0
51099,0.083,-0.100,0.962,40.609,-8.291,-54.274,0.8841,-0.0611,0.0010,-0.4634,-6.265,-3.151,124.852,0.215,-1.564,2.111,0.000,0.000,0.000,37.728,4.991,2.111,-0.309,0.782,0.581,0.07,0.18,1,0
51116,0.099,-0.066,0.961,25.290,-7.225,-47.566,0.8810,-0.0575,-0.0041,-0.4696,-5.606,-3.513,124.050,0.215,-1.564,2.111,0.000,0.000,0.000,33.286,6.502,2.111,-0.224,0.812,0.345,0.07,0.21,1,0
51576,0.133,-0.203,1.083,-0.996,19.455,-59.122,0.8461,-0.1082,-0.0130,-0.5218,-9.847,-7.753,117.338,0.215,-1.564,2.111,0.000,0.000,0.000,56.038,21.671,2.111,0.194,-0.347,0.910,0.10,0.24,1,0
51596,0.117,-0.210,1.053,-2.408,24.537,-53.903,0.8404,-0.1067,-0.0082,-0.5312,-9.901,-7.304,116.041,0.215,-1.564,2.111,0.000,0.000,0.000,56.221,20.438,2.111,0.355,-0.477,0.915,0.11,0.23,1,0
51615,0.128,-0.195,1.041,-4.871,27.742,-49.985,0.8361,-0.1058,-0.0038,-0.5383,-10.019,-6.908,115.059,0.215,-1.564,2.111,0.000,0.000,0.000,56.815,18.887,2.111,0.462,-0.564,0.732,0.11,0.21,1,0
51634,0.134,-0.188,1.040,-8.107,29.407,-46.739,0.8327,-0.1058,-0.0013,-0.5435,-10.132,-6.731,114.331,0.215,-1.564,2.111,0.000,0.000,0.000,57.357,18.283,2.111,0.533,-0.622,0.522,0.11,0.21,1,0
52584,0.119,-0.071,0.971,3.572,55.715,19.360,0.7369,-0.0317,0.0186,-0.6750,-4.123,-0.884,95.060,0.215,-1.564,2.111,0.000,0.000,0.000,24.312,-1.419,2.111,0.380,-0.828,-0.681,0.20,0.80,1,0
52818,0.081,-0.070,0.934,12.973,-4.515,14.839,0.7624,-0.0055,0.0043,-0.6471,-0.794,-0.031,99.352,0.215,-1.564,2.111,0.000,0.000,0.000,5.856,-5.650,2.111,-0.038,0.507,-0.244,0.23,-0.54,1,0
52846,0.092,-0.038,0.944,2.783,5.142,12.815,0.7646,-0.0063,0.0019,-0.6445,-0.693,-0.293,99.749,0.215,-1.564,2.111,0.000,0.000,0.000,5.071,-4.518,2.111,0.218,0.136,-0.279,0.22,-0.51,1,0
52862,0.108,-0.027,0.955,-11.520,8.863,9.504,0.7657,-0.0075,0.0023,-0.6431,-0.825,-0.355,99.945,0.215,-1.564,2.111,0.000,0.000,0.000,5.660,-4.237,2.111,0.348,-0.053,-0.072,0.22,-0.41,1,0
52878,0.127,-0.035,0.974,-17.448,7.292,7.490,0.7663,-0.0093,0.0033,-0.6424,-1.065,-0.396,100.059,0.215,-1.564,2.111,0.000,0.000,0.000,6.524,-4.149,2.111,0.434,-0.171,0.069,0.22,0.24,1,0
52894,0.149,-0.058,0.996,-10.730,2.239,6.136,0.7669,-0.0120,0.0042,-0.6416,-1.365,-0.516,100.177,0.215,-1.564,2.111,0.000,0.000,0.000,8.673,-3.718,2.111,0.528,-0.002,0.224,0.22,0.23,1,0
52924,0.189,-0.099,1.009,-2.732,2.579,5.963,0.7678,-0.0151,0.0038,-0.6405,-1.613,-0.771,100.342,0.215,-1.564,2.111,0.000,0.000,0.000,10.126,-2.822,2.111,0.333,0.224,0.337,0.22,0.12,1,0
52943,0.207,-0.112,1.030,-1.823,2.626,8.799,0.7686,-0.0169,0.0036,-0.6395,-1.756,-0.918,100.486,0.215,-1.564,2.111,0.000,0.000,0.000,10.932,-2.308,2.111,0.357,0.229,0.152,0.20,-0.71,1,0
52966,0.204,-0.103,1.050,9.464,-2.755,14.799,0.7701,-0.0184,0.0020,-0.6376,-1.773,-1.167,100.776,0.215,-1.564,2.111,0.000,0.000,0.000,11.236,-1.647,2.111,0.133,0.395,-0.096,0.19,-0.68,1,0
52988,0.194,-0.086,1.062,14.640,-7.610,22.538,0.7724,-0.0190,-0.0015,-0.6348,-1.573,-1.513,101.195,0.215,-1.564,2.111,0.000,0.000,0.000,10.449,-0.660,2.111,-0.093,0.516,-0.276,0.18,-0.63,1,0
52996,0.190,-0.081,1.065,13.452,-8.835,25.192,0.7733,-0.0192,-0.0026,-0.6338,-1.515,-1.625,101.343,0.215,-1.564,2.111,0.000,0.000,0.000,9.868,-0.052,2.111,-0.146,0.544,-0.319,0.17,-0.45,1,0
53014,0.180,-0.074,1.060,6.875,-10.161,34.375,0.7766,-0.0207,-0.0060,-0.6296,-1.414,-2.027,101.956,0.215,-1.564,2.111,0.000,0.000,0.000,9.144,1.332,2.111,-0.035,0.628,-0.443,0.17,-0.43,1,0
53028,0.173,-0.083,1.048,6.783,-8.794,39.736,0.7790,-0.0219,-0.0077,-0.6265,-1.404,-2.257,102.412,0.215,-1.564,2.111,0.000,0.000,0.000,9.055,2.028,2.111,0.083,0.670,-0.507,0.16,-0.43,1,0
53046,0.160,-0.108,1.052,15.800,-8.670,41.778,0.7831,-0.0230,-0.0103,-0.6214,-1.329,-2.561,103.166,0.215,-1.564,2.111,0.000,0.000,0.000,8.772,3.245,2.111,-0.049,0.722,-0.589,0.16,-0.35,1,0
53060,0.144,-0.123,1.061,24.083,-13.741,39.175,0.7862,-0.0234,-0.0130,-0.6174,-1.187,-2.825,103.743,0.215,-1.564,2.111,0.000,0.000,0.000,8.340,3.852,2.111,-0.174,0.758,-0.643,0.16,0.16,1,0
53084,0.117,-0.102,1.044,46.200,-18.600,39.999,0.7916,-0.0219,-0.0210,-0.6102,-0.521,-3.434,104.761,0.215,-1.564,2.111,0.000,0.000,0.000,4.854,6.190,2.111,-0.365,0.814,-0.705,0.17,0.15,1,0
53540,0.021,0.178,0.968,-9.142,7.022,14.044,0.8631,0.0259,-0.0470,-0.5023,5.277,-3.161,119.460,0.215,-1.564,2.111,0.000,0.000,0.000,-28.107,5.921,2.111,-0.562,-0.262,0.232,-0.05,-0.31,1,0
53560,0.006,0.173,0.958,-22.023,4.138,15.269,0.8641,0.0256,-0.0452,-0.5006,5.141,-3.012,119.690,0.215,-1.564,2.111,0.000,0.000,0.000,-27.761,5.168,2.111,-0.329,-0.074,0.114,-0.06,-0.30,1,0
53578,-0.004,0.162,0.943,-36.562,-2.071,17.375,0.8658,0.0229,-0.0424,-0.4981,4.700,-2.901,120.054,0.215,-1.564,2.111,0.000,0.000,0.000,-26.138,4.757,2.111,-0.064,0.140,-0.108,-0.06,-0.33,1,0
53588,-0.010,0.170,0.936,-44.969,-4.229,17.089,0.8664,0.0209,-0.0411,-0.4972,4.430,-2.891,120.184,0.215,-1.564,2.111,0.000,0.000,0.000,-24.688,4.649,2.111,0.018,0.207,-0.177,-0.06,-0.33,1,0
53808,0.048,0.066,1.080,-42.916,0.947,1.789,0.8820,-0.0200,-0.0170,-0.4705,-1.107,-2.801,123.867,0.215,-1.564,2.111,0.000,0.000,0.000,6.663,4.343,2.111,0.658,0.168,0.430,-0.06,0.75,1,0
53839,0.044,0.008,1.066,-27.368,-0.510,3.440,0.8823,-0.0252,-0.0137,-0.4698,-1.811,-2.740,123.977,0.215,-1.564,2.111,0.000,0.000,0.000,10.754,4.138,2.111,0.406,0.398,0.326,-0.05,0.28,1,0
53854,0.040,-0.014,1.053,-24.736,-0.852,2.505,0.8824,-0.0269,-0.0124,-0.4695,-2.056,-2.706,124.015,0.215,-1.564,2.111,0.000,0.000,0.000,12.674,3.984,2.111,0.460,0.488,0.395,-0.04,0.26,1,0
53867,0.036,-0.044,1.036,-14.177,0.371,0.635,0.8825,-0.0280,-0.0106,-0.4694,-2.263,-2.583,124.033,0.215,-1.564,2.111,0.000,0.000,0.000,13.278,3.790,2.111,0.344,0.470,0.474,-0.04,0.26,1,0
53888,0.037,-0.068,1.032,6.755,1.957,0.490,0.8825,-0.0295,-0.0083,-0.4693,-2.535,-2.426,124.043,0.215,-1.564,2.111,0.000,0.000,0.000,15.046,3.163,2.111,0.076,0.192,0.557,-0.04,0.25,1,0
53902,0.037,-0.075,1.024,17.253,2.933,1.662,0.8826,-0.0290,-0.0079,-0.4692,-2.510,-2.356,124.065,0.215,-1.564,2.111,0.000,0.000,0.000,15.280,2.799,2.111,-0.065,0.041,0.459,-0.03,0.26,1,0
53928,0.032,-0.064,1.037,27.448,0.601,7.047,0.8832,-0.0262,-0.0082,-0.4683,-2.214,-2.235,124.177,0.215,-1.564,2.111,0.000,0.000,0.000,14.091,2.444,2.111,-0.267,0.053,0.148,-0.02,0.46,1,0
53948,0.031,-0.053,1.028,26.669,-1.345,10.340,0.8841,-0.0230,-0.0091,-0.4666,-1.844,-2.150,124.386,0.215,-1.564,2.111,0.000,0.000,0.000,12.227,2.147,2.111,-0.413,0.241,-0.081,-0.01,0.44,1,0
53965,0.034,-0.045,1.021,21.003,-0.452,11.005,0.8850,-0.0211,-0.0097,-0.4650,-1.622,-2.102,124.590,0.215,-1.564,2.111,0.000,0.000,0.000,10.593,1.925,2.111,-0.443,0.316,-0.218,-0.01,0.39,1,0
53980,0.034,-0.040,1.022,15.885,0.676,10.558,0.8856,-0.0203,-0.0097,-0.4640,-1.544,-2.065,124.724,0.215,-1.564,2.111,0.000,0.000,0.000,9.996,1.823,2.111,-0.276,0.226,-0.316,-0.01,0.12,1,0
54000,0.031,-0.036,1.020,6.980,0.967,9.390,0.8864,-0.0198,-0.0089,-0.4624,-1.545,-1.953,124.931,0.215,-1.564,2.111,0.000,0.000,0.000,9.716,1.529,2.111,-0.043,0.096,-0.300,-0.00,0.12,1,0
54020,0.030,-0.041,1.021,-0.769,0.970,5.959,0.8871,-0.0208,-0.0073,-0.4610,-1.734,-1.838,125.106,0.215,-1.564,2.111,0.000,0.000,0.000,10.276,1.124,2.111,0.165,0.039,-0.066,-0.00,0.11,1,0
54044,0.031,-0.047,1.017,-3.070,1.006,3.384,0.8874,-0.0227,-0.0057,-0.4603,-2.011,-1.779,125.200,0.215,-1.564,2.111,0.000,0.000,0.000,11.787,0.815,2.111,0.345,0.022,0.163,0.00,0.08,1,0
54068,0.029,-0.050,1.021,-3.106,-0.097,0.983,0.8876,-0.0256,-0.0036,-0.4598,-2.412,-1.718,125.266,0.215,-1.564,2.111,0.000,0.000,0.000,14.032,0.614,2.111,0.486,0.124,0.343,0.00,0.08,1,0
54088,0.030,-0.051,1.018,-4.874,-0.549,-0.224,0.8876,-0.0276,-0.0023,-0.4597,-2.687,-1.693,125.278,0.215,-1.564,2.111,0.000,0.000,0.000,15.663,0.452,2.111,0.571,0.243,0.452,0.02,0.14,1,0
54536,0.007,-0.072,1.006,14.490,14.875,-0.036,0.8885,-0.0317,0.0099,-0.4577,-3.748,-0.649,125.517,0.215,-1.564,2.111,0.000,0.000,0.000,22.291,-2.760,2.111,0.568,-0.580,0.380,0.09,0.21,1,0
54546,-0.017,0.044,1.003,21.156,2.057,2.417,0.8911,0.0182,0.0011,-0.4534,1.800,1.060,126.082,0.215,-1.564,2.111,0.000,0.000,0.000,-8.104,-9.151,2.111,-0.346,-0.038,0.239,0.13,0.12,1,0
54560,-0.016,0.058,0.997,8.359,4.844,1.063,0.8912,0.0214,-0.0002,-0.4532,2.203,1.090,126.116,0.215,-1.564,2.111,0.000,0.000,0.000,-9.831,-9.177,2.111,-0.169,-0.165,0.310,0.14,0.93,1,0
54578,-0.018,0.071,0.994,-4.552,6.945,-0.579,0.8912,0.0235,-0.0004,-0.4531,2.426,1.182,126.127,0.215,-1.564,2.111,0.000,0.000,0.000,-12.080,-9.462,2.111,0.026,-0.304,0.424,0.16,0.88,1,0
54603,-0.035,0.086,1.033,-18.198,1.330,-2.098,0.8910,0.0239,0.0009,-0.4533,2.397,1.334,126.096,0.215,-1.564,2.111,0.000,0.000,0.000,-12.267,-10.087,2.111,0.235,-0.320,0.548,0.17,0.76,1,0
54816,-0.029,0.075,1.010,-14.272,-0.081,-1.373,0.8907,0.0292,0.0010,-0.4537,2.929,1.618,126.052,0.215,-1.564,2.111,0.000,0.000,0.000,-15.188,-11.104,2.111,-0.046,-0.138,0.220,0.19,0.40,1,0
54845,-0.029,0.073,1.009,-25.566,0.469,-2.583,0.8905,0.0270,0.0023,-0.4541,2.632,1.640,126.001,0.215,-1.564,2.111,0.000,0.000,0.000,-13.661,-11.177,2.111,0.212,-0.213,0.412,0.20,0.38,1,0
54866,-0.028,0.068,1.009,-27.871,0.680,-2.712,0.8904,0.0246,0.0036,-0.4545,2.320,1.646,125.956,0.215,-1.564,2.111,0.000,0.000,0.000,-12.123,-11.198,2.111,0.356,-0.236,0.465,0.20,0.36,1,0
54888,-0.028,0.059,1.008,-28.870,0.897,-2.864,0.8903,0.0214,0.0053,-0.4549,1.908,1.654,125.895,0.215,-1.564,2.111,0.000,0.000,0.000,-10.237,-11.224,2.111,0.495,-0.255,0.479,0.21,0.38,1,0
54908,-0.031,0.042,1.007,-24.156,0.657,-2.950,0.8901,0.0190,0.0067,-0.4553,1.593,1.675,125.843,0.215,-1.564,2.111,0.000,0.000,0.000,-8.320,-11.267,2.111,0.579,-0.258,0.459,0.22,0.36,1,0
54926,-0.030,0.063,1.014,-12.400,0.534,6.846,0.8902,0.0183,0.0073,-0.4550,1.485,1.700,125.876,0.215,-1.564,2.111,0.000,0.000,0.000,-7.161,-11.378,2.111,0.350,-0.258,0.247,0.23,0.34,1,0
54943,-0.034,0.054,1.013,-2.800,-1.492,14.746,0.8909,0.0188,0.0070,-0.4537,1.559,1.695,126.047,0.215,-1.564,2.111,0.000,0.000,0.000,-7.180,-11.387,2.111,0.172,-0.118,0.082,0.23,0.29,1,0
54958,-0.024,0.041,0.994,8.077,2.231,19.285,0.8921,0.0208,0.0059,-0.4512,1.821,1.678,126.366,0.215,-1.564,2.111,0.000,0.000,0.000,-8.199,-11.370,2.111,-0.023,-0.157,-0.098,0.23,-0.05,1,0
54976,-0.032,0.011,1.007,27.681,0.903,22.320,0.8934,0.0221,0.0047,-0.4486,2.026,1.621,126.702,0.215,-1.564,2.111,0.000,0.000,0.000,-9.766,-11.099,2.111,-0.169,-0.239,-0.232,0.22,-0.04,1,0
55005,-0.046,0.006,1.037,57.870,-6.030,27.344,0.8960,0.0310,0.0002,-0.4429,3.177,1.601,127.442,0.215,-1.564,2.111,0.000,0.000,0.000,-15.474,-11.095,2.111,-0.386,0.071,-0.433,0.23,-0.03,1,0
55022,-0.048,0.010,1.024,53.654,-7.690,23.971,0.8974,0.0364,-0.0031,-0.4397,3.901,1.517,127.842,0.215,-1.564,2.111,0.000,0.000,0.000,-18.103,-10.943,2.111,-0.478,0.210,-0.494,0.23,0.09,1,0
55037,-0.037,0.022,1.001,47.098,-3.596,20.555,0.8985,0.0411,-0.0059,-0.4370,4.537,1.446,128.179,0.215,-1.564,2.111,0.000,0.000,0.000,-22.887,-10.575,2.111,-0.556,0.211,-0.291,0.23,0.09,1,0
55056,-0.029,0.042,0.991,37.560,2.600,18.147,0.8996,0.0455,-0.0079,-0.4343,5.097,1.449,128.520,0.215,-1.564,2.111,0.000,0.000,0.000,-26.973,-10.497,2.111,-0.630,0.009,-0.076,0.23,0.04,1,0
55076,-0.025,0.076,0.984,17.373,5.403,15.752,0.9008,0.0487,-0.0086,-0.4314,5.461,1.513,128.892,0.215,-1.564,2.111,0.000,0.000,0.000,-29.008,-10.665,2.111,-0.448,-0.192,0.138,0.22,-0.30,1,0
55098,-0.030,0.104,0.970,-22.281,8.793,8.058,0.9017,0.0481,-0.0069,-0.4295,5.326,1.654,129.135,0.215,-1.564,2.111,0.000,0.000,0.000,-28.784,-11.023,2.111,-0.183,-0.340,0.296,0.22,-0.29,1,0
55118,-0.035,0.111,1.028,-48.041,2.606,4.221,0.9024,0.0446,-0.0035,-0.4285,4.713,1.832,129.283,0.215,-1.564,2.111,0.000,0.000,0.000,-26.344,-11.774,2.111,0.053,-0.323,0.436,0.21,-0.26,1,0
55564,-0.013,0.064,1.003,-9.991,3.497,13.078,0.9083,0.0232,-0.0049,-0.4176,2.646,0.604,130.631,0.215,-1.564,2.111,0.000,0.000,0.000,-13.551,-7.503,2.111,0.181,-0.207,-0.651,0.19,-0.07,1,0
55582,-0.017,0.056,1.007,-6.315,1.959,14.359,0.9091,0.0239,-0.0043,-0.4158,2.700,0.690,130.858,0.215,-1.564,2.111,0.000,0.000,0.000,-13.664,-7.666,2.111,0.025,-0.116,-0.697,0.18,-0.08,1,0
55598,-0.022,0.055,1.015,-6.126,0.167,13.633,0.9100,0.0249,-0.0033,-0.4138,2.752,0.830,131.112,0.215,-1.564,2.111,0.000,0.000,0.000,-14.114,-8.178,2.111,-0.162,0.075,-0.739,0.18,-0.21,1,0
55619,-0.028,0.039,1.024,-12.053,-2.970,11.690,0.9109,0.0248,-0.0020,-0.4118,2.687,0.966,131.375,0.215,-1.564,2.111,0.000,0.000,0.000,-14.178,-8.664,2.111,-0.148,0.244,-0.650,0.18,-0.20,1,0
55800,-0.017,0.084,0.995,-25.173,2.845,3.865,0.9156,0.0321,-0.0050,-0.4007,3.602,0.953,132.761,0.215,-1.564,2.111,0.000,0.000,0.000,-19.649,-8.695,2.111,0.363,-0.410,0.360,0.14,0.08,1,0
